USUBJID,TRLNKID,TRTESTCD,TRORRES,TRORRESU,TRDY,VISIT
S0001,T01,LDIAM,39.9,mm,0,BASELINE
S0001,,SUMDIAM,39.9,mm,0,BASELINE
S0001,T01,LDIAM,19.9,mm,56,TA1
S0001,,SUMDIAM,19.9,mm,56,TA1
S0002,T01,LDIAM,15.9,mm,0,BASELINE
S0002,T02,LDIAM,27.3,mm,0,BASELINE
S0002,T03,LDIAM,16.1,mm,0,BASELINE
S0002,,SUMDIAM,59.3,mm,0,BASELINE
S0003,T01,LDIAM,50.1,mm,0,BASELINE
S0003,T02,LDIAM,11.8,mm,0,BASELINE
S0003,,SUMDIAM,61.9,mm,0,BASELINE
S0003,T01,LDIAM,53.2,mm,56,TA1
S0003,T02,LDIAM,12.5,mm,56,TA1
S0003,,SUMDIAM,65.7,mm,56,TA1
S0003,T01,LDIAM,62.6,mm,112,TA2
S0003,T02,LDIAM,14.8,mm,112,TA2
S0003,,SUMDIAM,77.4,mm,112,TA2
S0004,T01,LDIAM,14.8,mm,0,BASELINE
S0004,,SUMDIAM,14.8,mm,0,BASELINE
S0004,T01,LDIAM,7.4,mm,56,TA1
S0004,,SUMDIAM,7.4,mm,56,TA1
S0004,T01,LDIAM,13.4,mm,112,TA2
S0004,,SUMDIAM,13.4,mm,112,TA2
S0005,T01,LDIAM,48.5,mm,0,BASELINE
S0005,T02,LDIAM,28.6,mm,0,BASELINE
S0005,T03,LDIAM,44.7,mm,0,BASELINE
S0005,T04,LDIAM,24.5,mm,0,BASELINE
S0005,T05,LDIAM,17.8,mm,0,BASELINE
S0005,,SUMDIAM,164.1,mm,0,BASELINE
S0005,T01,LDIAM,60.6,mm,56,TA1
S0005,T02,LDIAM,35.8,mm,56,TA1
S0005,T03,LDIAM,55.9,mm,56,TA1
S0005,T04,LDIAM,30.6,mm,56,TA1
S0005,T05,LDIAM,22.2,mm,56,TA1
S0005,,SUMDIAM,205.1,mm,56,TA1
S0006,T01,LDIAM,34.6,mm,0,BASELINE
S0006,T02,LDIAM,54.3,mm,0,BASELINE
S0006,T03,LDIAM,55.0,mm,0,BASELINE
S0006,T04,LDIAM,12.8,mm,0,BASELINE
S0006,,SUMDIAM,156.7,mm,0,BASELINE
S0006,T01,LDIAM,17.3,mm,56,TA1
S0006,T02,LDIAM,27.1,mm,56,TA1
S0006,T03,LDIAM,27.5,mm,56,TA1
S0006,T04,LDIAM,6.4,mm,56,TA1
S0006,,SUMDIAM,78.4,mm,56,TA1
S0006,T01,LDIAM,0.0,mm,112,TA2
S0006,T02,LDIAM,0.0,mm,112,TA2
S0006,T03,LDIAM,0.0,mm,112,TA2
S0006,T04,LDIAM,0.0,mm,112,TA2
S0006,,SUMDIAM,0.0,mm,112,TA2
S0006,T01,LDIAM,0.0,mm,168,TA3
S0006,T02,LDIAM,0.0,mm,168,TA3
S0006,T03,LDIAM,0.0,mm,168,TA3
S0006,T04,LDIAM,0.0,mm,168,TA3
S0006,,SUMDIAM,0.0,mm,168,TA3
S0006,T01,LDIAM,0.0,mm,224,TA4
S0006,T02,LDIAM,0.0,mm,224,TA4
S0006,T03,LDIAM,0.0,mm,224,TA4
S0006,T04,LDIAM,0.0,mm,224,TA4
S0006,,SUMDIAM,0.0,mm,224,TA4
S0006,T01,LDIAM,0.0,mm,280,TA5
S0006,T02,LDIAM,0.0,mm,280,TA5
S0006,T03,LDIAM,0.0,mm,280,TA5
S0006,T04,LDIAM,0.0,mm,280,TA5
S0006,,SUMDIAM,0.0,mm,280,TA5
S0006,T01,LDIAM,0.0,mm,336,TA6
S0006,T02,LDIAM,0.0,mm,336,TA6
S0006,T03,LDIAM,0.0,mm,336,TA6
S0006,T04,LDIAM,0.0,mm,336,TA6
S0006,,SUMDIAM,0.0,mm,336,TA6
S0007,T01,LDIAM,57.1,mm,0,BASELINE
S0007,T02,LDIAM,34.6,mm,0,BASELINE
S0007,T03,LDIAM,13.5,mm,0,BASELINE
S0007,,SUMDIAM,105.2,mm,0,BASELINE
S0007,T01,LDIAM,71.4,mm,56,TA1
S0007,T02,LDIAM,43.2,mm,56,TA1
S0007,T03,LDIAM,16.9,mm,56,TA1
S0007,,SUMDIAM,131.5,mm,56,TA1
S0008,T01,LDIAM,25.6,mm,0,BASELINE
S0008,T02,LDIAM,51.8,mm,0,BASELINE
S0008,T03,LDIAM,38.1,mm,0,BASELINE
S0008,T04,LDIAM,54.4,mm,0,BASELINE
S0008,,SUMDIAM,169.9,mm,0,BASELINE
S0008,T01,LDIAM,27.5,mm,56,TA1
S0008,T02,LDIAM,55.7,mm,56,TA1
S0008,T03,LDIAM,41.0,mm,56,TA1
S0008,T04,LDIAM,58.5,mm,56,TA1
S0008,,SUMDIAM,182.7,mm,56,TA1
S0008,T01,LDIAM,32.0,mm,112,TA2
S0008,T02,LDIAM,64.8,mm,112,TA2
S0008,T03,LDIAM,47.6,mm,112,TA2
S0008,T04,LDIAM,68.0,mm,112,TA2
S0008,,SUMDIAM,212.4,mm,112,TA2
S0009,T01,LDIAM,17.8,mm,0,BASELINE
S0009,,SUMDIAM,17.8,mm,0,BASELINE
S0009,T01,LDIAM,23.8,mm,56,TA1
S0009,,SUMDIAM,23.8,mm,56,TA1
S0010,T01,LDIAM,38.8,mm,0,BASELINE
S0010,T02,LDIAM,17.5,mm,0,BASELINE
S0010,,SUMDIAM,56.3,mm,0,BASELINE
S0010,T01,LDIAM,19.4,mm,56,TA1
S0010,T02,LDIAM,8.8,mm,56,TA1
S0010,,SUMDIAM,28.1,mm,56,TA1
S0010,T01,LDIAM,0.0,mm,112,TA2
S0010,T02,LDIAM,0.0,mm,112,TA2
S0010,,SUMDIAM,0.0,mm,112,TA2
S0010,T01,LDIAM,0.0,mm,168,TA3
S0010,T02,LDIAM,0.0,mm,168,TA3
S0010,,SUMDIAM,0.0,mm,168,TA3
S0010,T01,LDIAM,0.0,mm,224,TA4
S0010,T02,LDIAM,0.0,mm,224,TA4
S0010,,SUMDIAM,0.0,mm,224,TA4
S0011,T01,LDIAM,56.7,mm,0,BASELINE
S0011,T02,LDIAM,26.1,mm,0,BASELINE
S0011,T03,LDIAM,45.3,mm,0,BASELINE
S0011,T04,LDIAM,15.1,mm,0,BASELINE
S0011,T05,LDIAM,43.1,mm,0,BASELINE
S0011,,SUMDIAM,186.3,mm,0,BASELINE
S0011,T01,LDIAM,59.1,mm,56,TA1
S0011,T02,LDIAM,27.2,mm,56,TA1
S0011,T03,LDIAM,47.2,mm,56,TA1
S0011,T04,LDIAM,15.7,mm,56,TA1
S0011,T05,LDIAM,44.9,mm,56,TA1
S0011,,SUMDIAM,194.2,mm,56,TA1
S0011,T01,LDIAM,61.5,mm,112,TA2
S0011,T02,LDIAM,28.3,mm,112,TA2
S0011,T03,LDIAM,49.2,mm,112,TA2
S0011,T04,LDIAM,16.4,mm,112,TA2
S0011,T05,LDIAM,46.8,mm,112,TA2
S0011,,SUMDIAM,202.2,mm,112,TA2
S0011,T01,LDIAM,61.5,mm,168,TA3
S0011,T02,LDIAM,28.3,mm,168,TA3
S0011,T03,LDIAM,49.2,mm,168,TA3
S0011,T04,LDIAM,16.4,mm,168,TA3
S0011,T05,LDIAM,46.8,mm,168,TA3
S0011,,SUMDIAM,202.2,mm,168,TA3
S0011,T01,LDIAM,70.9,mm,224,TA4
S0011,T02,LDIAM,32.6,mm,224,TA4
S0011,T03,LDIAM,56.6,mm,224,TA4
S0011,T04,LDIAM,18.9,mm,224,TA4
S0011,T05,LDIAM,53.9,mm,224,TA4
S0011,,SUMDIAM,232.9,mm,224,TA4
S0012,T01,LDIAM,46.8,mm,0,BASELINE
S0012,T02,LDIAM,26.8,mm,0,BASELINE
S0012,T03,LDIAM,38.4,mm,0,BASELINE
S0012,T04,LDIAM,37.3,mm,0,BASELINE
S0012,T05,LDIAM,28.0,mm,0,BASELINE
S0012,,SUMDIAM,177.3,mm,0,BASELINE
S0012,T01,LDIAM,41.2,mm,56,TA1
S0012,T02,LDIAM,23.6,mm,56,TA1
S0012,T03,LDIAM,33.8,mm,56,TA1
S0012,T04,LDIAM,32.9,mm,56,TA1
S0012,T05,LDIAM,24.7,mm,56,TA1
S0012,,SUMDIAM,156.2,mm,56,TA1
S0012,T01,LDIAM,51.8,mm,112,TA2
S0012,T02,LDIAM,29.7,mm,112,TA2
S0012,T03,LDIAM,42.5,mm,112,TA2
S0012,T04,LDIAM,41.3,mm,112,TA2
S0012,T05,LDIAM,31.0,mm,112,TA2
S0012,,SUMDIAM,196.3,mm,112,TA2
S0013,T01,LDIAM,50.8,mm,0,BASELINE
S0013,,SUMDIAM,50.8,mm,0,BASELINE
S0013,T01,LDIAM,54.3,mm,56,TA1
S0013,,SUMDIAM,54.3,mm,56,TA1
S0014,T01,LDIAM,17.8,mm,0,BASELINE
S0014,T02,LDIAM,55.7,mm,0,BASELINE
S0014,T03,LDIAM,54.7,mm,0,BASELINE
S0014,,SUMDIAM,128.2,mm,0,BASELINE
S0014,T01,LDIAM,8.9,mm,56,TA1
S0014,T02,LDIAM,27.9,mm,56,TA1
S0014,T03,LDIAM,27.4,mm,56,TA1
S0014,,SUMDIAM,64.1,mm,56,TA1
S0015,T01,LDIAM,20.3,mm,0,BASELINE
S0015,T02,LDIAM,20.4,mm,0,BASELINE
S0015,T03,LDIAM,26.0,mm,0,BASELINE
S0015,T04,LDIAM,33.0,mm,0,BASELINE
S0015,,SUMDIAM,99.7,mm,0,BASELINE
S0015,T01,LDIAM,18.1,mm,56,TA1
S0015,T02,LDIAM,18.2,mm,56,TA1
S0015,T03,LDIAM,23.2,mm,56,TA1
S0015,T04,LDIAM,29.4,mm,56,TA1
S0015,,SUMDIAM,88.8,mm,56,TA1
S0015,T01,LDIAM,15.9,mm,112,TA2
S0015,T02,LDIAM,15.9,mm,112,TA2
S0015,T03,LDIAM,20.3,mm,112,TA2
S0015,T04,LDIAM,25.8,mm,112,TA2
S0015,,SUMDIAM,77.9,mm,112,TA2
S0015,T01,LDIAM,15.9,mm,168,TA3
S0015,T02,LDIAM,15.9,mm,168,TA3
S0015,T03,LDIAM,20.3,mm,168,TA3
S0015,T04,LDIAM,25.8,mm,168,TA3
S0015,,SUMDIAM,77.9,mm,168,TA3
S0016,T01,LDIAM,30.1,mm,0,BASELINE
S0016,,SUMDIAM,30.1,mm,0,BASELINE
S0016,T01,LDIAM,15.1,mm,56,TA1
S0016,,SUMDIAM,15.1,mm,56,TA1
S0016,T01,LDIAM,0.0,mm,112,TA2
S0016,,SUMDIAM,0.0,mm,112,TA2
S0017,T01,LDIAM,46.9,mm,0,BASELINE
S0017,,SUMDIAM,46.9,mm,0,BASELINE
S0017,T01,LDIAM,49.1,mm,56,TA1
S0017,,SUMDIAM,49.1,mm,56,TA1
S0017,T01,LDIAM,51.3,mm,112,TA2
S0017,,SUMDIAM,51.3,mm,112,TA2
S0017,T01,LDIAM,51.3,mm,168,TA3
S0017,,SUMDIAM,51.3,mm,168,TA3
S0017,T01,LDIAM,51.3,mm,224,TA4
S0017,,SUMDIAM,51.3,mm,224,TA4
S0017,T01,LDIAM,51.3,mm,280,TA5
S0017,,SUMDIAM,51.3,mm,280,TA5
S0017,T01,LDIAM,51.3,mm,336,TA6
S0017,,SUMDIAM,51.3,mm,336,TA6
S0017,T01,LDIAM,51.3,mm,392,TA7
S0017,,SUMDIAM,51.3,mm,392,TA7
S0017,T01,LDIAM,51.3,mm,448,TA8
S0017,,SUMDIAM,51.3,mm,448,TA8
S0017,T01,LDIAM,51.3,mm,504,TA9
S0017,,SUMDIAM,51.3,mm,504,TA9
S0017,T01,LDIAM,51.3,mm,560,TA10
S0017,,SUMDIAM,51.3,mm,560,TA10
S0017,T01,LDIAM,58.6,mm,616,TA11
S0017,,SUMDIAM,58.6,mm,616,TA11
S0018,T01,LDIAM,18.2,mm,0,BASELINE
S0018,T02,LDIAM,14.1,mm,0,BASELINE
S0018,T03,LDIAM,21.7,mm,0,BASELINE
S0018,T04,LDIAM,58.9,mm,0,BASELINE
S0018,T05,LDIAM,50.1,mm,0,BASELINE
S0018,,SUMDIAM,163.0,mm,0,BASELINE
S0018,T01,LDIAM,19.3,mm,56,TA1
S0018,T02,LDIAM,14.9,mm,56,TA1
S0018,T03,LDIAM,23.0,mm,56,TA1
S0018,T04,LDIAM,62.3,mm,56,TA1
S0018,T05,LDIAM,53.0,mm,56,TA1
S0018,,SUMDIAM,172.5,mm,56,TA1
S0018,T01,LDIAM,20.3,mm,112,TA2
S0018,T02,LDIAM,15.7,mm,112,TA2
S0018,T03,LDIAM,24.2,mm,112,TA2
S0018,T04,LDIAM,65.8,mm,112,TA2
S0018,T05,LDIAM,56.0,mm,112,TA2
S0018,,SUMDIAM,182.0,mm,112,TA2
S0018,T01,LDIAM,20.3,mm,168,TA3
S0018,T02,LDIAM,15.7,mm,168,TA3
S0018,T03,LDIAM,24.2,mm,168,TA3
S0018,T04,LDIAM,65.8,mm,168,TA3
S0018,T05,LDIAM,56.0,mm,168,TA3
S0018,,SUMDIAM,182.0,mm,168,TA3
S0018,T01,LDIAM,20.3,mm,224,TA4
S0018,T02,LDIAM,15.7,mm,224,TA4
S0018,T03,LDIAM,24.2,mm,224,TA4
S0018,T04,LDIAM,65.8,mm,224,TA4
S0018,T05,LDIAM,56.0,mm,224,TA4
S0018,,SUMDIAM,182.0,mm,224,TA4
S0018,T01,LDIAM,22.8,mm,280,TA5
S0018,T02,LDIAM,17.6,mm,280,TA5
S0018,T03,LDIAM,27.1,mm,280,TA5
S0018,T04,LDIAM,73.6,mm,280,TA5
S0018,T05,LDIAM,62.6,mm,280,TA5
S0018,,SUMDIAM,203.8,mm,280,TA5
S0019,T01,LDIAM,18.7,mm,0,BASELINE
S0019,,SUMDIAM,18.7,mm,0,BASELINE
S0019,T01,LDIAM,9.3,mm,56,TA1
S0019,,SUMDIAM,9.3,mm,56,TA1
S0019,T01,LDIAM,0.0,mm,112,TA2
S0019,,SUMDIAM,0.0,mm,112,TA2
S0019,T01,LDIAM,0.0,mm,168,TA3
S0019,,SUMDIAM,0.0,mm,168,TA3
S0019,T01,LDIAM,0.0,mm,224,TA4
S0019,,SUMDIAM,0.0,mm,224,TA4
S0019,T01,LDIAM,0.0,mm,280,TA5
S0019,,SUMDIAM,0.0,mm,280,TA5
S0019,T01,LDIAM,0.0,mm,336,TA6
S0019,,SUMDIAM,0.0,mm,336,TA6
S0020,T01,LDIAM,56.8,mm,0,BASELINE
S0020,T02,LDIAM,47.6,mm,0,BASELINE
S0020,T03,LDIAM,45.3,mm,0,BASELINE
S0020,,SUMDIAM,149.7,mm,0,BASELINE
S0020,T01,LDIAM,53.2,mm,56,TA1
S0020,T02,LDIAM,44.5,mm,56,TA1
S0020,T03,LDIAM,42.4,mm,56,TA1
S0020,,SUMDIAM,140.1,mm,56,TA1
S0021,T01,LDIAM,43.6,mm,0,BASELINE
S0021,T02,LDIAM,45.9,mm,0,BASELINE
S0021,T03,LDIAM,26.9,mm,0,BASELINE
S0021,T04,LDIAM,48.2,mm,0,BASELINE
S0021,,SUMDIAM,164.6,mm,0,BASELINE
S0021,T01,LDIAM,40.8,mm,56,TA1
S0021,T02,LDIAM,43.0,mm,56,TA1
S0021,T03,LDIAM,25.2,mm,56,TA1
S0021,T04,LDIAM,45.1,mm,56,TA1
S0021,,SUMDIAM,154.0,mm,56,TA1
S0021,T01,LDIAM,38.0,mm,112,TA2
S0021,T02,LDIAM,40.0,mm,112,TA2
S0021,T03,LDIAM,23.4,mm,112,TA2
S0021,T04,LDIAM,42.0,mm,112,TA2
S0021,,SUMDIAM,143.5,mm,112,TA2
S0021,T01,LDIAM,38.0,mm,168,TA3
S0021,T02,LDIAM,40.0,mm,168,TA3
S0021,T03,LDIAM,23.4,mm,168,TA3
S0021,T04,LDIAM,42.0,mm,168,TA3
S0021,,SUMDIAM,143.5,mm,168,TA3
S0021,T01,LDIAM,38.0,mm,224,TA4
S0021,T02,LDIAM,40.0,mm,224,TA4
S0021,T03,LDIAM,23.4,mm,224,TA4
S0021,T04,LDIAM,42.0,mm,224,TA4
S0021,,SUMDIAM,143.5,mm,224,TA4
S0021,T01,LDIAM,38.0,mm,280,TA5
S0021,T02,LDIAM,40.0,mm,280,TA5
S0021,T03,LDIAM,23.4,mm,280,TA5
S0021,T04,LDIAM,42.0,mm,280,TA5
S0021,,SUMDIAM,143.5,mm,280,TA5
S0021,T01,LDIAM,38.0,mm,336,TA6
S0021,T02,LDIAM,40.0,mm,336,TA6
S0021,T03,LDIAM,23.4,mm,336,TA6
S0021,T04,LDIAM,42.0,mm,336,TA6
S0021,,SUMDIAM,143.5,mm,336,TA6
S0021,T01,LDIAM,38.0,mm,392,TA7
S0021,T02,LDIAM,40.0,mm,392,TA7
S0021,T03,LDIAM,23.4,mm,392,TA7
S0021,T04,LDIAM,42.0,mm,392,TA7
S0021,,SUMDIAM,143.5,mm,392,TA7
S0021,T01,LDIAM,38.0,mm,448,TA8
S0021,T02,LDIAM,40.0,mm,448,TA8
S0021,T03,LDIAM,23.4,mm,448,TA8
S0021,T04,LDIAM,42.0,mm,448,TA8
S0021,,SUMDIAM,143.5,mm,448,TA8
S0021,T01,LDIAM,47.8,mm,504,TA9
S0021,T02,LDIAM,50.3,mm,504,TA9
S0021,T03,LDIAM,29.5,mm,504,TA9
S0021,T04,LDIAM,52.8,mm,504,TA9
S0021,,SUMDIAM,180.4,mm,504,TA9
S0022,T01,LDIAM,17.3,mm,0,BASELINE
S0022,T02,LDIAM,24.4,mm,0,BASELINE
S0022,T03,LDIAM,15.6,mm,0,BASELINE
S0022,T04,LDIAM,18.3,mm,0,BASELINE
S0022,,SUMDIAM,75.6,mm,0,BASELINE
S0022,T01,LDIAM,15.8,mm,56,TA1
S0022,T02,LDIAM,22.3,mm,56,TA1
S0022,T03,LDIAM,14.2,mm,56,TA1
S0022,T04,LDIAM,16.7,mm,56,TA1
S0022,,SUMDIAM,69.0,mm,56,TA1
S0023,T01,LDIAM,23.5,mm,0,BASELINE
S0023,T02,LDIAM,55.2,mm,0,BASELINE
S0023,T03,LDIAM,42.4,mm,0,BASELINE
S0023,T04,LDIAM,18.7,mm,0,BASELINE
S0023,T05,LDIAM,12.1,mm,0,BASELINE
S0023,,SUMDIAM,151.9,mm,0,BASELINE
S0023,T01,LDIAM,24.8,mm,56,TA1
S0023,T02,LDIAM,58.2,mm,56,TA1
S0023,T03,LDIAM,44.7,mm,56,TA1
S0023,T04,LDIAM,19.7,mm,56,TA1
S0023,T05,LDIAM,12.8,mm,56,TA1
S0023,,SUMDIAM,160.1,mm,56,TA1
S0023,T01,LDIAM,26.0,mm,112,TA2
S0023,T02,LDIAM,61.1,mm,112,TA2
S0023,T03,LDIAM,47.0,mm,112,TA2
S0023,T04,LDIAM,20.7,mm,112,TA2
S0023,T05,LDIAM,13.4,mm,112,TA2
S0023,,SUMDIAM,168.2,mm,112,TA2
S0024,T01,LDIAM,15.6,mm,0,BASELINE
S0024,,SUMDIAM,15.6,mm,0,BASELINE
S0024,T01,LDIAM,7.8,mm,56,TA1
S0024,,SUMDIAM,7.8,mm,56,TA1
S0024,T01,LDIAM,0.0,mm,112,TA2
S0024,,SUMDIAM,0.0,mm,112,TA2
S0025,T01,LDIAM,22.8,mm,0,BASELINE
S0025,T02,LDIAM,29.0,mm,0,BASELINE
S0025,T03,LDIAM,51.6,mm,0,BASELINE
S0025,T04,LDIAM,24.3,mm,0,BASELINE
S0025,,SUMDIAM,127.7,mm,0,BASELINE
S0025,T01,LDIAM,11.4,mm,56,TA1
S0025,T02,LDIAM,14.5,mm,56,TA1
S0025,T03,LDIAM,25.8,mm,56,TA1
S0025,T04,LDIAM,12.2,mm,56,TA1
S0025,,SUMDIAM,63.9,mm,56,TA1
S0025,T01,LDIAM,0.0,mm,112,TA2
S0025,T02,LDIAM,0.0,mm,112,TA2
S0025,T03,LDIAM,0.0,mm,112,TA2
S0025,T04,LDIAM,0.0,mm,112,TA2
S0025,,SUMDIAM,0.0,mm,112,TA2
S0025,T01,LDIAM,0.0,mm,168,TA3
S0025,T02,LDIAM,0.0,mm,168,TA3
S0025,T03,LDIAM,0.0,mm,168,TA3
S0025,T04,LDIAM,0.0,mm,168,TA3
S0025,,SUMDIAM,0.0,mm,168,TA3
S0025,T01,LDIAM,0.0,mm,224,TA4
S0025,T02,LDIAM,0.0,mm,224,TA4
S0025,T03,LDIAM,0.0,mm,224,TA4
S0025,T04,LDIAM,0.0,mm,224,TA4
S0025,,SUMDIAM,0.0,mm,224,TA4
S0025,T01,LDIAM,0.0,mm,280,TA5
S0025,T02,LDIAM,0.0,mm,280,TA5
S0025,T03,LDIAM,0.0,mm,280,TA5
S0025,T04,LDIAM,0.0,mm,280,TA5
S0025,,SUMDIAM,0.0,mm,280,TA5
S0025,T01,LDIAM,0.0,mm,336,TA6
S0025,T02,LDIAM,0.0,mm,336,TA6
S0025,T03,LDIAM,0.0,mm,336,TA6
S0025,T04,LDIAM,0.0,mm,336,TA6
S0025,,SUMDIAM,0.0,mm,336,TA6
S0025,T01,LDIAM,0.0,mm,392,TA7
S0025,T02,LDIAM,0.0,mm,392,TA7
S0025,T03,LDIAM,0.0,mm,392,TA7
S0025,T04,LDIAM,0.0,mm,392,TA7
S0025,,SUMDIAM,0.0,mm,392,TA7
S0025,T01,LDIAM,0.0,mm,448,TA8
S0025,T02,LDIAM,0.0,mm,448,TA8
S0025,T03,LDIAM,0.0,mm,448,TA8
S0025,T04,LDIAM,0.0,mm,448,TA8
S0025,,SUMDIAM,0.0,mm,448,TA8
S0025,T01,LDIAM,0.0,mm,504,TA9
S0025,T02,LDIAM,0.0,mm,504,TA9
S0025,T03,LDIAM,0.0,mm,504,TA9
S0025,T04,LDIAM,0.0,mm,504,TA9
S0025,,SUMDIAM,0.0,mm,504,TA9
S0025,T01,LDIAM,0.0,mm,560,TA10
S0025,T02,LDIAM,0.0,mm,560,TA10
S0025,T03,LDIAM,0.0,mm,560,TA10
S0025,T04,LDIAM,0.0,mm,560,TA10
S0025,,SUMDIAM,0.0,mm,560,TA10
S0025,T01,LDIAM,0.0,mm,616,TA11
S0025,T02,LDIAM,0.0,mm,616,TA11
S0025,T03,LDIAM,0.0,mm,616,TA11
S0025,T04,LDIAM,0.0,mm,616,TA11
S0025,,SUMDIAM,0.0,mm,616,TA11
S0025,T01,LDIAM,0.0,mm,672,TA12
S0025,T02,LDIAM,0.0,mm,672,TA12
S0025,T03,LDIAM,0.0,mm,672,TA12
S0025,T04,LDIAM,0.0,mm,672,TA12
S0025,,SUMDIAM,0.0,mm,672,TA12
S0025,T01,LDIAM,0.0,mm,728,TA13
S0025,T02,LDIAM,0.0,mm,728,TA13
S0025,T03,LDIAM,0.0,mm,728,TA13
S0025,T04,LDIAM,0.0,mm,728,TA13
S0025,,SUMDIAM,0.0,mm,728,TA13
S0025,T01,LDIAM,1.1,mm,784,TA14
S0025,T02,LDIAM,1.5,mm,784,TA14
S0025,T03,LDIAM,2.6,mm,784,TA14
S0025,T04,LDIAM,1.2,mm,784,TA14
S0025,,SUMDIAM,6.4,mm,784,TA14
S0025,T01,LDIAM,1.1,mm,840,TA15
S0025,T02,LDIAM,1.5,mm,840,TA15
S0025,T03,LDIAM,2.6,mm,840,TA15
S0025,T04,LDIAM,1.2,mm,840,TA15
S0025,,SUMDIAM,6.4,mm,840,TA15
S0025,T01,LDIAM,1.1,mm,896,TA16
S0025,T02,LDIAM,1.5,mm,896,TA16
S0025,T03,LDIAM,2.6,mm,896,TA16
S0025,T04,LDIAM,1.2,mm,896,TA16
S0025,,SUMDIAM,6.4,mm,896,TA16
S0025,T01,LDIAM,1.1,mm,952,TA17
S0025,T02,LDIAM,1.5,mm,952,TA17
S0025,T03,LDIAM,2.6,mm,952,TA17
S0025,T04,LDIAM,1.2,mm,952,TA17
S0025,,SUMDIAM,6.4,mm,952,TA17
S0025,T01,LDIAM,1.1,mm,1008,TA18
S0025,T02,LDIAM,1.5,mm,1008,TA18
S0025,T03,LDIAM,2.6,mm,1008,TA18
S0025,T04,LDIAM,1.2,mm,1008,TA18
S0025,,SUMDIAM,6.4,mm,1008,TA18
S0025,T01,LDIAM,1.1,mm,1064,TA19
S0025,T02,LDIAM,1.5,mm,1064,TA19
S0025,T03,LDIAM,2.6,mm,1064,TA19
S0025,T04,LDIAM,1.2,mm,1064,TA19
S0025,,SUMDIAM,6.4,mm,1064,TA19
S0026,T01,LDIAM,25.3,mm,0,BASELINE
S0026,T02,LDIAM,56.7,mm,0,BASELINE
S0026,T03,LDIAM,27.2,mm,0,BASELINE
S0026,,SUMDIAM,109.2,mm,0,BASELINE
S0026,T01,LDIAM,22.9,mm,56,TA1
S0026,T02,LDIAM,51.2,mm,56,TA1
S0026,T03,LDIAM,24.6,mm,56,TA1
S0026,,SUMDIAM,98.6,mm,56,TA1
S0027,T01,LDIAM,45.6,mm,0,BASELINE
S0027,T02,LDIAM,41.1,mm,0,BASELINE
S0027,,SUMDIAM,86.7,mm,0,BASELINE
S0027,T01,LDIAM,39.6,mm,56,TA1
S0027,T02,LDIAM,35.7,mm,56,TA1
S0027,,SUMDIAM,75.4,mm,56,TA1
S0027,T01,LDIAM,33.7,mm,112,TA2
S0027,T02,LDIAM,30.3,mm,112,TA2
S0027,,SUMDIAM,64.0,mm,112,TA2
S0027,T01,LDIAM,33.7,mm,168,TA3
S0027,T02,LDIAM,30.3,mm,168,TA3
S0027,,SUMDIAM,64.0,mm,168,TA3
S0027,T01,LDIAM,33.7,mm,224,TA4
S0027,T02,LDIAM,30.3,mm,224,TA4
S0027,,SUMDIAM,64.0,mm,224,TA4
S0027,T01,LDIAM,33.7,mm,280,TA5
S0027,T02,LDIAM,30.3,mm,280,TA5
S0027,,SUMDIAM,64.0,mm,280,TA5
S0027,T01,LDIAM,42.7,mm,336,TA6
S0027,T02,LDIAM,38.5,mm,336,TA6
S0027,,SUMDIAM,81.1,mm,336,TA6
S0028,T01,LDIAM,24.5,mm,0,BASELINE
S0028,T02,LDIAM,23.7,mm,0,BASELINE
S0028,,SUMDIAM,48.2,mm,0,BASELINE
S0028,T01,LDIAM,22.7,mm,56,TA1
S0028,T02,LDIAM,22.0,mm,56,TA1
S0028,,SUMDIAM,44.7,mm,56,TA1
S0028,T01,LDIAM,28.5,mm,112,TA2
S0028,T02,LDIAM,27.6,mm,112,TA2
S0028,,SUMDIAM,56.1,mm,112,TA2
S0029,T01,LDIAM,23.1,mm,0,BASELINE
S0029,T02,LDIAM,21.5,mm,0,BASELINE
S0029,T03,LDIAM,15.0,mm,0,BASELINE
S0029,,SUMDIAM,59.6,mm,0,BASELINE
S0029,T01,LDIAM,24.7,mm,56,TA1
S0029,T02,LDIAM,23.0,mm,56,TA1
S0029,T03,LDIAM,16.1,mm,56,TA1
S0029,,SUMDIAM,63.8,mm,56,TA1
S0029,T01,LDIAM,26.4,mm,112,TA2
S0029,T02,LDIAM,24.5,mm,112,TA2
S0029,T03,LDIAM,17.1,mm,112,TA2
S0029,,SUMDIAM,68.0,mm,112,TA2
S0029,T01,LDIAM,26.4,mm,168,TA3
S0029,T02,LDIAM,24.5,mm,168,TA3
S0029,T03,LDIAM,17.1,mm,168,TA3
S0029,,SUMDIAM,68.0,mm,168,TA3
S0030,T01,LDIAM,56.0,mm,0,BASELINE
S0030,T02,LDIAM,48.9,mm,0,BASELINE
S0030,T03,LDIAM,10.8,mm,0,BASELINE
S0030,T04,LDIAM,46.6,mm,0,BASELINE
S0030,,SUMDIAM,162.3,mm,0,BASELINE
S0030,T01,LDIAM,54.0,mm,56,TA1
S0030,T02,LDIAM,47.1,mm,56,TA1
S0030,T03,LDIAM,10.4,mm,56,TA1
S0030,T04,LDIAM,44.9,mm,56,TA1
S0030,,SUMDIAM,156.5,mm,56,TA1
S0030,T01,LDIAM,52.0,mm,112,TA2
S0030,T02,LDIAM,45.4,mm,112,TA2
S0030,T03,LDIAM,10.0,mm,112,TA2
S0030,T04,LDIAM,43.2,mm,112,TA2
S0030,,SUMDIAM,150.6,mm,112,TA2
S0030,T01,LDIAM,52.0,mm,168,TA3
S0030,T02,LDIAM,45.4,mm,168,TA3
S0030,T03,LDIAM,10.0,mm,168,TA3
S0030,T04,LDIAM,43.2,mm,168,TA3
S0030,,SUMDIAM,150.6,mm,168,TA3
S0030,T01,LDIAM,52.0,mm,224,TA4
S0030,T02,LDIAM,45.4,mm,224,TA4
S0030,T03,LDIAM,10.0,mm,224,TA4
S0030,T04,LDIAM,43.2,mm,224,TA4
S0030,,SUMDIAM,150.6,mm,224,TA4
S0030,T01,LDIAM,52.0,mm,280,TA5
S0030,T02,LDIAM,45.4,mm,280,TA5
S0030,T03,LDIAM,10.0,mm,280,TA5
S0030,T04,LDIAM,43.2,mm,280,TA5
S0030,,SUMDIAM,150.6,mm,280,TA5
S0030,T01,LDIAM,52.0,mm,336,TA6
S0030,T02,LDIAM,45.4,mm,336,TA6
S0030,T03,LDIAM,10.0,mm,336,TA6
S0030,T04,LDIAM,43.2,mm,336,TA6
S0030,,SUMDIAM,150.6,mm,336,TA6
S0030,T01,LDIAM,52.0,mm,392,TA7
S0030,T02,LDIAM,45.4,mm,392,TA7
S0030,T03,LDIAM,10.0,mm,392,TA7
S0030,T04,LDIAM,43.2,mm,392,TA7
S0030,,SUMDIAM,150.6,mm,392,TA7
S0030,T01,LDIAM,52.0,mm,448,TA8
S0030,T02,LDIAM,45.4,mm,448,TA8
S0030,T03,LDIAM,10.0,mm,448,TA8
S0030,T04,LDIAM,43.2,mm,448,TA8
S0030,,SUMDIAM,150.6,mm,448,TA8
