USUBJID,AESEQ,AETERM,AESER,AETOXGR,AESTDY,AEENDY,AEACN,AERULE,ARMCD,TRTEMFL
S0001,1,hypoalbuminemia,N,2,15,16,NOT APPLICABLE,,ARM3,Y
S0001,2,other serious adverse events (not individually predicted),Y,3,17,19,NOT APPLICABLE,,ARM3,Y
S0001,3,hyperphosphatemia,N,1,24,25,NOT APPLICABLE,,ARM3,Y
S0001,4,arthralgia,N,1,26,27,NOT APPLICABLE,,ARM3,Y
S0001,5,nasal_congestion_finding,N,2,31,32,NOT APPLICABLE,,ARM3,Y
S0001,6,fever,N,2,32,33,NOT APPLICABLE,,ARM3,Y
S0001,7,nausea,N,2,33,34,NOT APPLICABLE,,ARM3,Y
S0001,8,upper_respiratory_infections,N,1,33,34,NOT APPLICABLE,,ARM3,Y
S0001,9,hypertension_variable,N,2,59,60,NOT APPLICABLE,,ARM3,Y
S0001,10,blood_creatinine_increased,N,1,64,65,NOT APPLICABLE,,ARM3,Y
S0001,11,dyspnea,N,1,66,67,NOT APPLICABLE,,ARM3,Y
S0001,12,anorexia,N,1,69,70,NOT APPLICABLE,,ARM3,Y
S0001,13,dyspepsia,N,1,74,75,NOT APPLICABLE,,ARM3,Y
S0001,14,rash_erythematous_macules_or_papules,N,2,75,76,NOT APPLICABLE,,ARM3,Y
S0001,15,hypomagnesemia,N,1,80,81,NOT APPLICABLE,,ARM3,Y
S0001,16,hypocalcemia,N,1,89,127,NOT APPLICABLE,,ARM3,Y
S0001,17,dysuria,N,2,90,127,NOT APPLICABLE,,ARM3,Y
S0001,18,increased_frequency_of_micturition,N,2,102,127,NOT APPLICABLE,,ARM3,Y
S0001,19,urinary_tract_infection,Y,3,108,190,NOT APPLICABLE,,ARM3,Y
S0001,20,diarrhea,N,1,113,127,NOT APPLICABLE,,ARM3,Y
S0002,1,anemia,N,1,24,25,no_modification,DM004,ARM1,Y
S0002,2,decreased_platelet_count,N,2,29,30,no_modification,DM004,ARM1,Y
S0002,3,arthralgia,N,1,31,32,no_modification,DM004,ARM1,Y
S0002,4,hypocalcemia,N,1,31,32,no_modification,DM004,ARM1,Y
S0002,5,vomiting,N,1,39,40,no_modification,DM004,ARM1,Y
S0002,6,asthenia,N,1,92,127,NOT APPLICABLE,,ARM1,Y
S0003,1,dry_skin,N,1,2,3,no_modification,DM004,ARM2,Y
S0003,2,alanine_aminotransferase_increased,N,2,2,3,no_modification,DM004,ARM2,Y
S0003,3,other serious adverse events (not individually predicted),Y,3,7,9,NOT APPLICABLE,,ARM2,Y
S0003,4,constipation,N,1,8,9,no_modification,DM004,ARM2,Y
S0003,5,palmar_plantar_erythrodysesthesia_syndrome,N,1,19,20,no_modification,DM004,ARM2,Y
S0003,6,hemoglobin_normal_12_16_gm,N,1,26,27,no_modification,DM004,ARM2,Y
S0003,7,diarrhea,N,2,28,29,no_modification,DM004,ARM2,Y
S0003,8,depression_dominant,N,2,35,36,no_modification,DM004,ARM2,Y
S0003,9,fatigue,N,1,42,43,no_modification,DM004,ARM2,Y
S0003,10,pain,N,2,54,55,no_modification,DM004,ARM2,Y
S0003,11,anemia,N,1,55,56,no_modification,DM004,ARM2,Y
S0003,12,hematuria,N,2,64,65,no_modification,DM004,ARM2,Y
S0003,13,pneumonia,Y,3,66,68,NOT APPLICABLE,,ARM2,Y
S0003,14,leukopenia,N,2,90,127,NOT APPLICABLE,,ARM2,Y
S0004,1,vomiting,N,1,9,10,NOT APPLICABLE,,ARM4,Y
S0004,2,hypertension_variable,N,1,45,46,NOT APPLICABLE,,ARM4,Y
S0004,3,hypoalbuminemia,N,2,48,49,NOT APPLICABLE,,ARM4,Y
S0004,4,anemia,N,1,51,52,NOT APPLICABLE,,ARM4,Y
S0004,5,constipation,N,1,73,74,NOT APPLICABLE,,ARM4,Y
S0004,6,decrease_in_appetite,N,1,96,127,NOT APPLICABLE,,ARM4,Y
S0005,1,hematuria,N,1,29,30,no_modification,DM004,ARM1,Y
S0005,2,nausea,N,2,76,77,NOT APPLICABLE,,ARM1,Y
S0006,1,creatinine_increased,N,1,2,3,NOT APPLICABLE,,ARM3,Y
S0006,2,decrease_in_appetite,N,2,8,9,NOT APPLICABLE,,ARM3,Y
S0006,3,hyponatremia,N,2,18,19,NOT APPLICABLE,,ARM3,Y
S0006,4,hyperkalemia,N,1,20,21,NOT APPLICABLE,,ARM3,Y
S0006,5,vomiting,N,1,23,24,NOT APPLICABLE,,ARM3,Y
S0006,6,nausea,N,1,25,26,NOT APPLICABLE,,ARM3,Y
S0006,7,weight_loss,N,2,28,29,NOT APPLICABLE,,ARM3,Y
S0006,8,arthralgia,N,2,36,37,NOT APPLICABLE,,ARM3,Y
S0006,9,dyspnea,N,1,37,38,NOT APPLICABLE,,ARM3,Y
S0006,10,gastroesophageal_reflux_disease,N,1,39,40,NOT APPLICABLE,,ARM3,Y
S0006,11,hypertension_variable,N,1,40,41,NOT APPLICABLE,,ARM3,Y
S0006,12,death_finding,Y,3,41,43,NOT APPLICABLE,,ARM3,Y
S0006,13,rash_erythematous_macules_or_papules,N,1,50,51,NOT APPLICABLE,,ARM3,Y
S0006,14,hypoalbuminemia,N,1,52,53,NOT APPLICABLE,,ARM3,Y
S0006,15,increased_frequency_of_micturition,N,2,55,56,NOT APPLICABLE,,ARM3,Y
S0006,16,nasal_congestion_finding,N,2,60,61,NOT APPLICABLE,,ARM3,Y
S0006,17,constipation,N,1,68,69,NOT APPLICABLE,,ARM3,Y
S0006,18,hyperphosphatemia,N,2,75,76,NOT APPLICABLE,,ARM3,Y
S0007,1,nausea,N,2,15,16,NOT APPLICABLE,,ARM4,Y
S0007,2,other serious adverse events (not individually predicted),Y,3,23,25,NOT APPLICABLE,,ARM4,Y
S0007,3,abdominal_pain,N,2,35,36,NOT APPLICABLE,,ARM4,Y
S0007,4,rash_erythematous_macules_or_papules,N,2,41,42,NOT APPLICABLE,,ARM4,Y
S0007,5,vomiting,N,2,46,47,NOT APPLICABLE,,ARM4,Y
S0007,6,weight_loss,N,2,59,60,NOT APPLICABLE,,ARM4,Y
S0007,7,fever,N,2,80,81,NOT APPLICABLE,,ARM4,Y
S0007,8,back_pain,N,2,84,127,NOT APPLICABLE,,ARM4,Y
S0007,9,anemia,N,2,98,127,NOT APPLICABLE,,ARM4,Y
S0007,10,decreased_platelet_count,N,1,105,127,NOT APPLICABLE,,ARM4,Y
S0008,1,constipation,N,1,10,11,no_modification,DM004,ARM2,Y
S0008,2,vomiting,N,2,10,11,no_modification,DM004,ARM2,Y
S0008,3,anemia,N,1,15,16,no_modification,DM004,ARM2,Y
S0008,4,hiccough,N,1,18,19,no_modification,DM004,ARM2,Y
S0008,5,decreased_platelet_count,N,1,46,47,no_modification,DM004,ARM2,Y
S0008,6,thrombocytopenia,N,2,83,84,NOT APPLICABLE,,ARM2,Y
S0009,1,anemia,N,1,45,46,no_modification,DM004,ARM1,Y
S0010,1,pain_in_limb,N,2,15,16,no_modification,DM004,ARM1,Y
S0010,2,hypoalbuminemia,N,1,19,20,no_modification,DM004,ARM1,Y
S0010,3,nausea,N,1,41,42,no_modification,DM004,ARM1,Y
S0010,4,hyperphosphatemia,N,2,43,44,no_modification,DM004,ARM1,Y
S0010,5,weight_loss,N,2,45,46,no_modification,DM004,ARM1,Y
S0010,6,nasal_congestion_finding,N,1,45,46,no_modification,DM004,ARM1,Y
S0010,7,blood_creatinine_increased,N,2,45,46,no_modification,DM004,ARM1,Y
S0010,8,hypocalcemia,N,1,46,47,no_modification,DM004,ARM1,Y
S0010,9,fever,N,2,49,50,no_modification,DM004,ARM1,Y
S0010,10,hyperglycemia,N,2,60,61,no_modification,DM004,ARM1,Y
S0010,11,proteinuria,N,1,67,68,no_modification,DM004,ARM1,Y
S0010,12,dyspnea,N,2,73,74,no_modification,DM004,ARM1,Y
S0010,13,creatinine_increased,N,1,84,127,no_modification,DM004,ARM1,Y
S0010,14,decrease_in_appetite,N,2,101,127,NOT APPLICABLE,,ARM1,Y
S0010,15,pruritus,N,2,109,127,NOT APPLICABLE,,ARM1,Y
S0010,16,hypertension_variable,N,1,114,127,NOT APPLICABLE,,ARM1,Y
S0011,1,nausea,N,1,38,39,NOT APPLICABLE,,ARM4,Y
S0011,2,anorexia,N,1,44,45,NOT APPLICABLE,,ARM4,Y
S0012,1,decreased_platelet_count,Y,3,11,13,NOT APPLICABLE,,ARM1,Y
S0012,2,hematuria,N,2,21,22,no_modification,DM004,ARM1,Y
S0012,3,anemia,N,1,49,50,no_modification,DM004,ARM1,Y
S0012,4,coughing,N,1,53,54,no_modification,DM004,ARM1,Y
S0012,5,decrease_in_appetite,N,2,60,61,no_modification,DM004,ARM1,Y
S0012,6,fatigue,N,1,81,82,NOT APPLICABLE,,ARM1,Y
S0013,1,anemia,N,2,9,10,no_modification,DM004,ARM2,Y
S0013,2,hyperkalemia,N,2,15,16,no_modification,DM004,ARM2,Y
S0013,3,hypomagnesemia,N,2,36,37,no_modification,DM004,ARM2,Y
S0013,4,fever,N,2,42,43,no_modification,DM004,ARM2,Y
S0013,5,anorexia,N,2,58,59,no_modification,DM004,ARM2,Y
S0013,6,urinary_tract_infection,N,1,67,68,no_modification,DM004,ARM2,Y
S0013,7,dizziness,N,1,70,71,no_modification,DM004,ARM2,Y
S0013,8,nausea,N,1,81,82,no_modification,DM004,ARM2,Y
S0013,9,hematuria,N,1,82,83,no_modification,DM004,ARM2,Y
S0013,10,increased_frequency_of_micturition,N,1,90,127,NOT APPLICABLE,,ARM2,Y
S0014,1,nausea,N,2,1,2,no_modification,DM004,ARM1,Y
S0014,2,anemia,N,1,2,3,no_modification,DM004,ARM1,Y
S0014,3,hiccough,N,2,9,10,no_modification,DM004,ARM1,Y
S0014,4,fever,N,1,92,127,NOT APPLICABLE,,ARM1,Y
S0014,5,hyperkalemia,N,2,113,127,NOT APPLICABLE,,ARM1,Y
S0016,1,aspartate_aminotransferase_increased,N,1,60,61,NOT APPLICABLE,,ARM4,Y
S0016,2,anemia,N,2,69,70,NOT APPLICABLE,,ARM4,Y
S0016,3,pain,N,1,70,71,NOT APPLICABLE,,ARM4,Y
S0016,4,diarrhea,N,2,71,72,hold,DM026,ARM4,Y
S0016,5,headache,N,1,75,76,NOT APPLICABLE,,ARM4,Y
S0016,6,hemoglobin_normal_12_16_gm,N,1,95,127,NOT APPLICABLE,,ARM4,Y
S0016,7,creatinine_increased,N,2,114,127,NOT APPLICABLE,,ARM4,Y
S0017,1,decrease_in_appetite,N,2,11,12,NOT APPLICABLE,,ARM4,Y
S0017,2,arthralgia,N,1,14,15,NOT APPLICABLE,,ARM4,Y
S0017,3,hypoalbuminemia,N,1,30,31,NOT APPLICABLE,,ARM4,Y
S0017,4,fever,N,2,32,33,NOT APPLICABLE,,ARM4,Y
S0017,5,hyperphosphatemia,N,1,34,35,NOT APPLICABLE,,ARM4,Y
S0017,6,nausea,N,2,47,48,NOT APPLICABLE,,ARM4,Y
S0017,7,hypertension_variable,N,2,53,54,NOT APPLICABLE,,ARM4,Y
S0017,8,death_finding,Y,3,55,57,NOT APPLICABLE,,ARM4,Y
S0017,9,sleeplessness,N,1,71,72,NOT APPLICABLE,,ARM4,Y
S0017,10,pain_in_limb,N,1,79,80,NOT APPLICABLE,,ARM4,Y
S0017,11,anemia,N,1,80,81,NOT APPLICABLE,,ARM4,Y
S0017,12,dyspepsia,N,2,84,127,NOT APPLICABLE,,ARM4,Y
S0017,13,dyspnea,N,1,97,127,NOT APPLICABLE,,ARM4,Y
S0017,14,hypocalcemia,N,2,97,127,NOT APPLICABLE,,ARM4,Y
S0017,15,dysuria,N,2,100,127,NOT APPLICABLE,,ARM4,Y
S0017,16,nasal_congestion_finding,N,1,102,127,NOT APPLICABLE,,ARM4,Y
S0017,17,rash_erythematous_macules_or_papules,N,2,106,127,NOT APPLICABLE,,ARM4,Y
S0018,1,maculopapular_lesion,N,1,3,4,NOT APPLICABLE,,ARM4,Y
S0018,2,diarrhea,N,1,7,8,NOT APPLICABLE,,ARM4,Y
S0018,3,palmar_plantar_erythrodysesthesia_syndrome,N,1,9,10,hold,DM035,ARM4,Y
S0018,4,neuropathy:_sensory,N,1,13,14,NOT APPLICABLE,,ARM4,Y
S0018,5,other serious adverse events (not individually predicted),Y,3,13,15,NOT APPLICABLE,,ARM4,Y
S0018,6,diarrhea,N,1,16,17,NOT APPLICABLE,,ARM4,Y
S0018,7,hypoalbuminemia,N,2,35,36,NOT APPLICABLE,,ARM4,Y
S0018,8,anorexia,N,2,43,44,NOT APPLICABLE,,ARM4,Y
S0018,9,pain,N,1,59,60,NOT APPLICABLE,,ARM4,Y
S0018,10,hemoglobin_normal_12_16_gm,N,1,70,71,NOT APPLICABLE,,ARM4,Y
S0018,11,dry_skin,N,2,86,127,NOT APPLICABLE,,ARM4,Y
S0018,12,chills,N,2,86,127,NOT APPLICABLE,,ARM4,Y
S0018,13,rash_erythematous_macules_or_papules,N,2,88,127,NOT APPLICABLE,,ARM4,Y
S0018,14,vomiting,N,1,91,127,NOT APPLICABLE,,ARM4,Y
S0018,15,creatinine,N,1,110,127,NOT APPLICABLE,,ARM4,Y
S0019,1,nausea,N,2,16,17,no_modification,DM004,ARM1,Y
S0019,2,pain,N,2,31,32,no_modification,DM004,ARM1,Y
S0019,3,dyspnea,N,1,44,45,no_modification,DM004,ARM1,Y
S0019,4,dry_skin,N,1,49,50,no_modification,DM004,ARM1,Y
S0019,5,palmar_plantar_erythrodysesthesia_syndrome,N,2,75,76,hold;no_modification,DM004;DM035,ARM1,Y
S0019,6,anemia,N,2,76,77,no_modification,DM004,ARM1,Y
S0019,7,thrombocytopenia,N,2,77,78,no_modification,DM004,ARM1,Y
S0019,8,diarrhea,N,2,82,83,hold;no_modification,DM004;DM026,ARM1,Y
S0019,9,hematuria,N,1,85,127,NOT APPLICABLE,,ARM1,Y
S0019,10,constipation,N,2,91,127,NOT APPLICABLE,,ARM1,Y
S0020,1,nasal_congestion_finding,N,1,5,6,no_modification,DM004,ARM2,Y
S0020,2,creatinine_increased,N,2,9,10,no_modification,DM004,ARM2,Y
S0020,3,constipation,N,2,12,13,no_modification,DM004,ARM2,Y
S0020,4,pruritus,N,2,16,17,no_modification,DM004,ARM2,Y
S0020,5,increased_frequency_of_micturition,N,2,31,32,no_modification,DM004,ARM2,Y
S0020,6,event,N,2,47,48,no_modification,DM004,ARM2,Y
S0020,7,nausea,N,1,56,57,no_modification,DM004,ARM2,Y
S0020,8,other serious adverse events (not individually predicted),Y,3,61,63,NOT APPLICABLE,,ARM2,Y
S0020,9,dyspnea,N,2,69,70,NOT APPLICABLE,,ARM2,Y
S0020,10,arthralgia,N,1,80,81,NOT APPLICABLE,,ARM2,Y
S0020,11,hypertension_variable,N,1,88,127,NOT APPLICABLE,,ARM2,Y
S0020,12,hypoalbuminemia,N,2,94,127,NOT APPLICABLE,,ARM2,Y
S0021,1,decreased_platelet_count,N,2,11,12,no_modification,DM004,ARM2,Y
S0021,2,coughing,N,2,46,47,no_modification,DM004,ARM2,Y
S0021,3,anorexia,N,2,85,127,NOT APPLICABLE,,ARM2,Y
S0021,4,nausea,N,1,88,127,NOT APPLICABLE,,ARM2,Y
S0021,5,pneumonitis,Y,3,92,190,NOT APPLICABLE,,ARM2,Y
S0021,6,abdominal_pain,N,1,93,127,NOT APPLICABLE,,ARM2,Y
S0021,7,vomiting,N,1,99,127,NOT APPLICABLE,,ARM2,Y
S0021,8,asthenia,N,2,111,127,NOT APPLICABLE,,ARM2,Y
S0022,1,aspartate_aminotransferase_increased,N,2,1,2,hold;no_modification,DM004;DM028,ARM1,Y
S0022,2,abdominal_pain,N,2,1,2,no_modification,DM004,ARM1,Y
S0022,3,constipation,N,2,9,10,no_modification,DM004,ARM1,Y
S0022,4,pruritus,N,2,9,10,no_modification,DM004,ARM1,Y
S0022,5,hyperphosphatemia,N,1,10,11,no_modification,DM004,ARM1,Y
S0022,6,dysuria,N,2,14,15,no_modification,DM004,ARM1,Y
S0022,7,coughing,N,2,17,18,no_modification,DM004,ARM1,Y
S0022,8,urinary_tract_infection,Y,3,17,19,NOT APPLICABLE,,ARM1,Y
S0022,9,dyspnea,N,1,20,21,NOT APPLICABLE,,ARM1,Y
S0022,10,hypertension_variable,N,1,21,22,NOT APPLICABLE,,ARM1,Y
S0022,11,other serious adverse events (not individually predicted),Y,3,25,27,NOT APPLICABLE,,ARM1,Y
S0022,12,hyperglycemia,N,1,26,27,NOT APPLICABLE,,ARM1,Y
S0022,13,nausea,N,2,27,28,NOT APPLICABLE,,ARM1,Y
S0022,14,hypoalbuminemia,N,1,27,28,NOT APPLICABLE,,ARM1,Y
S0022,15,nasal_congestion_finding,N,1,27,28,NOT APPLICABLE,,ARM1,Y
S0022,16,arthralgia,N,2,31,32,NOT APPLICABLE,,ARM1,Y
S0022,17,hematuria,N,1,35,36,NOT APPLICABLE,,ARM1,Y
S0022,18,sleeplessness,N,1,41,42,NOT APPLICABLE,,ARM1,Y
S0024,1,dysuria,N,1,1,2,no_modification,DM004,ARM1,Y
S0024,2,aspartate_aminotransferase_increased,N,1,2,3,no_modification,DM004,ARM1,Y
S0024,3,nausea,N,2,3,4,no_modification,DM004,ARM1,Y
S0024,4,nasal_congestion_finding,N,2,9,10,no_modification,DM004,ARM1,Y
S0024,5,event,N,2,10,11,no_modification,DM004,ARM1,Y
S0024,6,coughing,N,2,24,25,no_modification,DM004,ARM1,Y
S0024,7,hypoalbuminemia,N,1,34,35,no_modification,DM004,ARM1,Y
S0024,8,hypomagnesemia,N,1,54,55,no_modification,DM004,ARM1,Y
S0024,9,dyspnea,N,2,61,62,no_modification,DM004,ARM1,Y
S0024,10,sleeplessness,N,1,65,66,no_modification,DM004,ARM1,Y
S0024,11,decrease_in_appetite,N,1,68,69,no_modification,DM004,ARM1,Y
S0024,12,hyperkalemia,N,2,71,72,no_modification,DM004,ARM1,Y
S0024,13,hypertension_variable,N,1,72,73,no_modification,DM004,ARM1,Y
S0024,14,death_finding,Y,3,74,76,NOT APPLICABLE,,ARM1,Y
S0024,15,dysgeusia,N,1,80,81,no_modification,DM004,ARM1,Y
S0024,16,proteinuria,N,1,88,127,NOT APPLICABLE,,ARM1,Y
S0024,17,other serious adverse events (not individually predicted),Y,3,95,190,NOT APPLICABLE,,ARM1,Y
S0024,18,hypocalcemia,N,2,99,127,NOT APPLICABLE,,ARM1,Y
S0024,19,arthralgia,N,1,111,127,NOT APPLICABLE,,ARM1,Y
S0025,1,urinary_tract_infection,N,1,1,2,no_modification,DM004,ARM2,Y
S0025,2,dyspnea,N,2,9,10,no_modification,DM004,ARM2,Y
S0025,3,myalgia,N,1,17,18,no_modification,DM004,ARM2,Y
S0025,4,fever,N,1,23,24,no_modification,DM004,ARM2,Y
S0025,5,hyperphosphatemia,N,2,24,25,no_modification,DM004,ARM2,Y
S0025,6,hematuria,N,2,28,29,no_modification,DM004,ARM2,Y
S0025,7,hypocalcemia,N,2,42,43,NOT APPLICABLE,,ARM2,Y
S0025,8,nausea,N,2,45,46,NOT APPLICABLE,,ARM2,Y
S0025,9,dizziness,N,1,45,46,NOT APPLICABLE,,ARM2,Y
S0025,10,headache,N,2,62,63,NOT APPLICABLE,,ARM2,Y
S0025,11,hypoalbuminemia,N,1,63,64,NOT APPLICABLE,,ARM2,Y
S0025,12,anemia,N,2,64,65,NOT APPLICABLE,,ARM2,Y
S0025,13,arthralgia,N,1,64,65,NOT APPLICABLE,,ARM2,Y
S0025,14,hypertension_variable,N,1,66,67,NOT APPLICABLE,,ARM2,Y
S0025,15,nasal_congestion_finding,N,2,68,69,NOT APPLICABLE,,ARM2,Y
S0025,16,hyponatremia,N,2,69,70,NOT APPLICABLE,,ARM2,Y
S0026,1,creatinine_increased,N,1,13,14,no_modification,DM004,ARM1,Y
S0026,2,hypertension_variable,N,1,18,19,no_modification,DM004,ARM1,Y
S0026,3,dyspepsia,N,1,19,20,no_modification,DM004,ARM1,Y
S0026,4,hypocalcemia,N,1,25,26,no_modification,DM004,ARM1,Y
S0026,5,proteinuria,N,2,33,34,no_modification,DM004,ARM1,Y
S0026,6,blood_creatinine_increased,N,1,33,34,no_modification,DM004,ARM1,Y
S0026,7,anemia,N,1,39,40,no_modification,DM004,ARM1,Y
S0026,8,dysuria,N,1,45,46,no_modification,DM004,ARM1,Y
S0026,9,dysgeusia,N,2,48,49,no_modification,DM004,ARM1,Y
S0026,10,nasal_congestion_finding,N,1,57,58,no_modification,DM004,ARM1,Y
S0026,11,hyperglycemia,N,2,60,61,no_modification,DM004,ARM1,Y
S0026,12,maculopapular_lesion,N,1,68,69,no_modification,DM004,ARM1,Y
S0026,13,hyperphosphatemia,N,1,72,73,no_modification,DM004,ARM1,Y
S0026,14,hyponatremia,N,1,78,79,no_modification,DM004,ARM1,Y
S0026,15,hypoalbuminemia,N,2,88,127,NOT APPLICABLE,,ARM1,Y
S0026,16,dyspnea,N,2,89,127,NOT APPLICABLE,,ARM1,Y
S0026,17,arthralgia,N,1,94,127,NOT APPLICABLE,,ARM1,Y
S0026,18,anorexia,N,2,99,127,NOT APPLICABLE,,ARM1,Y
S0026,19,decrease_in_appetite,N,2,110,127,NOT APPLICABLE,,ARM1,Y
S0026,20,other serious adverse events (not individually predicted),Y,3,112,190,NOT APPLICABLE,,ARM1,Y
S0027,1,dehydration,N,1,6,7,NOT APPLICABLE,,ARM3,Y
S0027,2,diarrhea,N,1,17,18,NOT APPLICABLE,,ARM3,Y
S0027,3,chills,N,1,40,41,NOT APPLICABLE,,ARM3,Y
S0027,4,constipation,N,2,62,63,NOT APPLICABLE,,ARM3,Y
S0027,5,thrombocytopenia,N,1,63,64,NOT APPLICABLE,,ARM3,Y
S0027,6,weight_loss,N,2,66,67,NOT APPLICABLE,,ARM3,Y
S0027,7,diarrhea,N,2,69,70,hold,DM026,ARM3,Y
S0027,8,pain,N,1,89,127,NOT APPLICABLE,,ARM3,Y
S0027,9,palmar_plantar_erythrodysesthesia_syndrome,N,2,96,127,NOT APPLICABLE,,ARM3,Y
S0027,10,dyspepsia,N,2,98,127,NOT APPLICABLE,,ARM3,Y
S0027,11,anorexia,N,1,100,127,NOT APPLICABLE,,ARM3,Y
S0027,12,nausea,N,2,108,127,NOT APPLICABLE,,ARM3,Y
S0027,13,anemia,Y,3,111,190,NOT APPLICABLE,,ARM3,Y
S0028,1,anemia,N,1,10,11,no_modification,DM004,ARM2,Y
S0029,1,"neoplasms_benign,_malignant_and_unspecified_(incl_cysts_and_polyps)_-_other,_specify",Y,3,1,3,NOT APPLICABLE,,ARM1,Y
S0029,2,palmar_plantar_erythrodysesthesia_syndrome,N,2,3,4,hold;no_modification,DM004;DM035,ARM1,Y
S0029,3,anemia,N,2,6,7,no_modification,DM004,ARM1,Y
S0029,4,diarrhea,N,1,9,10,no_modification,DM004,ARM1,Y
S0029,5,dyspepsia,N,2,13,14,NOT APPLICABLE,,ARM1,Y
S0029,6,anorexia,N,2,25,26,NOT APPLICABLE,,ARM1,Y
S0029,7,pain,N,1,31,32,NOT APPLICABLE,,ARM1,Y
S0029,8,coughing,N,2,35,36,NOT APPLICABLE,,ARM1,Y
S0029,9,alanine_aminotransferase_increased,N,2,39,40,NOT APPLICABLE,,ARM1,Y
S0030,1,nausea,N,2,8,9,no_modification,DM004,ARM2,Y
S0030,2,anemia,N,1,15,16,no_modification,DM004,ARM2,Y
S0030,3,hematuria,N,2,25,26,no_modification,DM004,ARM2,Y
S0030,4,"neoplasms_benign,_malignant_and_unspecified_(incl_cysts_and_polyps)_-_other,_specify",Y,3,26,28,NOT APPLICABLE,,ARM2,Y
S0030,5,palmar_plantar_erythrodysesthesia_syndrome,N,2,29,30,no_modification,DM004,ARM2,Y
S0030,6,chills,N,2,81,82,no_modification,DM004,ARM2,Y
S0030,7,pain,N,2,82,83,no_modification,DM004,ARM2,Y
S0030,8,headache,N,2,82,83,no_modification,DM004,ARM2,Y
S0030,9,hemoglobin_normal_12_16_gm,N,1,83,84,no_modification,DM004,ARM2,Y
S0030,10,hypoalbuminemia,N,2,107,127,NOT APPLICABLE,,ARM2,Y
S0031,1,nausea,N,1,74,75,NOT APPLICABLE,,ARM4,Y
S0032,1,alanine_aminotransferase_increased,N,2,49,50,hold,DM028,ARM4,Y
S0032,2,hematuria,N,1,58,59,NOT APPLICABLE,,ARM4,Y
S0032,3,anemia,N,1,67,68,NOT APPLICABLE,,ARM4,Y
S0032,4,urinary_tract_infection,N,1,70,71,NOT APPLICABLE,,ARM4,Y
S0032,5,nausea,N,2,77,78,NOT APPLICABLE,,ARM4,Y
S0032,6,hypertension_variable,N,1,88,127,NOT APPLICABLE,,ARM4,Y
S0033,1,hematuria,N,2,55,56,NOT APPLICABLE,,ARM3,Y
S0034,1,coughing,N,1,8,9,no_modification,DM004,ARM1,Y
S0034,2,anemia,N,1,16,17,no_modification,DM004,ARM1,Y
S0034,3,abdominal_pain,N,2,22,23,no_modification,DM004,ARM1,Y
S0034,4,hiccough,N,2,25,26,no_modification,DM004,ARM1,Y
S0034,5,nausea,N,1,27,28,no_modification,DM004,ARM1,Y
S0034,6,decrease_in_appetite,N,2,29,30,no_modification,DM004,ARM1,Y
S0034,7,asthenia,N,1,113,127,NOT APPLICABLE,,ARM1,Y
S0035,1,coughing,N,2,1,2,no_modification,DM004,ARM1,Y
S0035,2,nausea,N,2,19,20,no_modification,DM004,ARM1,Y
S0035,3,anorexia,N,2,21,22,no_modification,DM004,ARM1,Y
S0035,4,hypokalemia,N,1,24,25,no_modification,DM004,ARM1,Y
S0035,5,decreased_platelet_count,N,2,30,31,no_modification,DM004,ARM1,Y
S0035,6,anemia,N,1,41,42,no_modification,DM004,ARM1,Y
S0035,7,fever,Y,3,51,53,NOT APPLICABLE,,ARM1,Y
S0035,8,fever,N,2,58,59,no_modification,DM004,ARM1,Y
S0035,9,thrombocytopenia,N,2,59,60,no_modification,DM004,ARM1,Y
S0035,10,vomiting,N,1,60,61,no_modification,DM004,ARM1,Y
S0035,11,headache,N,2,68,69,no_modification,DM004,ARM1,Y
S0036,1,diarrhea,N,2,2,3,hold,DM026,ARM3,Y
S0036,2,creatinine_increased,N,1,12,13,NOT APPLICABLE,,ARM3,Y
S0036,3,pain,N,1,22,23,NOT APPLICABLE,,ARM3,Y
S0036,4,constipation,N,1,38,39,NOT APPLICABLE,,ARM3,Y
S0036,5,diarrhea,N,1,59,60,NOT APPLICABLE,,ARM3,Y
S0036,6,coughing,N,1,68,69,NOT APPLICABLE,,ARM3,Y
S0037,1,increased_frequency_of_micturition,N,2,8,9,NOT APPLICABLE,,ARM3,Y
S0037,2,alanine_aminotransferase_increased,N,2,14,15,hold,DM028,ARM3,Y
S0037,3,anemia,N,1,24,25,NOT APPLICABLE,,ARM3,Y
S0037,4,anorexia,N,1,37,38,NOT APPLICABLE,,ARM3,Y
S0037,5,dysgeusia,N,2,47,48,NOT APPLICABLE,,ARM3,Y
S0037,6,hematuria,N,2,49,50,NOT APPLICABLE,,ARM3,Y
S0038,1,other serious adverse events (not individually predicted),Y,3,2,4,NOT APPLICABLE,,ARM3,Y
S0038,2,decrease_in_appetite,N,2,5,6,NOT APPLICABLE,,ARM3,Y
S0038,3,nasal_congestion_finding,N,1,7,8,NOT APPLICABLE,,ARM3,Y
S0038,4,arthralgia,N,1,21,22,NOT APPLICABLE,,ARM3,Y
S0038,5,hypertension_variable,N,2,30,31,NOT APPLICABLE,,ARM3,Y
S0038,6,hyponatremia,N,2,31,32,NOT APPLICABLE,,ARM3,Y
S0038,7,dysuria,N,1,31,32,NOT APPLICABLE,,ARM3,Y
S0038,8,hypomagnesemia,N,2,35,36,NOT APPLICABLE,,ARM3,Y
S0038,9,pain_in_limb,N,1,40,41,NOT APPLICABLE,,ARM3,Y
S0038,10,abdominal_pain,N,2,43,44,NOT APPLICABLE,,ARM3,Y
S0038,11,hyperphosphatemia,N,1,53,54,NOT APPLICABLE,,ARM3,Y
S0038,12,hypocalcemia,N,2,56,57,NOT APPLICABLE,,ARM3,Y
S0038,13,nausea,N,2,61,62,NOT APPLICABLE,,ARM3,Y
S0038,14,hyperkalemia,N,1,64,65,NOT APPLICABLE,,ARM3,Y
S0038,15,rash_erythematous_macules_or_papules,N,1,76,77,NOT APPLICABLE,,ARM3,Y
S0038,16,sleeplessness,N,1,81,82,NOT APPLICABLE,,ARM3,Y
S0038,17,pneumonia,Y,3,86,190,NOT APPLICABLE,,ARM3,Y
S0038,18,dyspnea,N,1,90,127,NOT APPLICABLE,,ARM3,Y
S0039,1,decrease_in_appetite,N,2,4,5,no_modification,DM004,ARM1,Y
S0039,2,nasal_congestion_finding,N,1,8,9,no_modification,DM004,ARM1,Y
S0039,3,dyspnea,N,2,12,13,no_modification,DM004,ARM1,Y
S0039,4,sleeplessness,N,1,19,20,no_modification,DM004,ARM1,Y
S0039,5,nausea,N,1,25,26,no_modification,DM004,ARM1,Y
S0039,6,blood_creatinine_increased,N,2,28,29,no_modification,DM004,ARM1,Y
S0039,7,dysgeusia,N,1,32,33,no_modification,DM004,ARM1,Y
S0039,8,diarrhea,N,2,36,37,hold;no_modification,DM004;DM026,ARM1,Y
S0039,9,dyspepsia,N,1,41,42,no_modification,DM004,ARM1,Y
S0039,10,pruritus,N,2,56,57,no_modification,DM004,ARM1,Y
S0039,11,hypoalbuminemia,N,2,60,61,no_modification,DM004,ARM1,Y
S0039,12,dysuria,N,1,62,63,no_modification,DM004,ARM1,Y
S0039,13,arthralgia,N,1,73,74,no_modification,DM004,ARM1,Y
S0039,14,hypertension_variable,N,2,75,76,no_modification,DM004,ARM1,Y
S0039,15,pain_in_limb,N,2,84,127,no_modification,DM004,ARM1,Y
S0039,16,proteinuria,N,2,100,127,NOT APPLICABLE,,ARM1,Y
S0041,1,alanine_aminotransferase_increased,Y,3,3,5,discontinue_agent,DM029,ARM3,Y
S0041,2,fatigue,N,2,4,5,NOT APPLICABLE,,ARM3,Y
S0041,3,hiccough,N,1,7,8,NOT APPLICABLE,,ARM3,Y
S0041,4,nausea,N,2,9,10,NOT APPLICABLE,,ARM3,Y
S0041,5,urinary_tract_infection,N,1,11,12,NOT APPLICABLE,,ARM3,Y
S0041,6,fever,Y,3,11,13,NOT APPLICABLE,,ARM3,Y
S0041,7,increased_frequency_of_micturition,N,1,15,16,NOT APPLICABLE,,ARM3,Y
S0041,8,hyperkalemia,N,2,16,17,NOT APPLICABLE,,ARM3,Y
S0041,9,rash_erythematous_macules_or_papules,N,2,17,18,NOT APPLICABLE,,ARM3,Y
S0041,10,hypokalemia,N,1,20,21,NOT APPLICABLE,,ARM3,Y
S0041,11,peripheral_edema,N,2,21,22,NOT APPLICABLE,,ARM3,Y
S0041,12,constipation,N,1,23,24,NOT APPLICABLE,,ARM3,Y
S0041,13,weight_loss,N,2,27,28,NOT APPLICABLE,,ARM3,Y
S0041,14,anorexia,N,1,28,29,NOT APPLICABLE,,ARM3,Y
S0041,15,decreased_platelet_count,Y,3,30,32,NOT APPLICABLE,,ARM3,Y
S0041,16,hypoalbuminemia,N,2,32,33,NOT APPLICABLE,,ARM3,Y
S0041,17,decrease_in_appetite,N,1,33,34,NOT APPLICABLE,,ARM3,Y
S0041,18,dizziness,N,2,35,36,NOT APPLICABLE,,ARM3,Y
S0041,19,dyspnea,N,1,36,37,NOT APPLICABLE,,ARM3,Y
S0041,20,pruritus,N,1,39,40,NOT APPLICABLE,,ARM3,Y
S0041,21,coughing,N,2,41,42,NOT APPLICABLE,,ARM3,Y
S0041,22,neutrophil_count_decreased,N,1,42,43,NOT APPLICABLE,,ARM3,Y
S0041,23,proteinuria,N,1,47,48,NOT APPLICABLE,,ARM3,Y
S0041,24,urinary_tract_infection,Y,3,47,49,NOT APPLICABLE,,ARM3,Y
S0041,25,anemia,N,2,49,50,NOT APPLICABLE,,ARM3,Y
S0041,26,pneumonia,Y,3,49,51,NOT APPLICABLE,,ARM3,Y
S0041,27,aspartate_aminotransferase_increased,N,1,50,51,NOT APPLICABLE,,ARM3,Y
S0041,28,paresthesia,N,1,51,52,NOT APPLICABLE,,ARM3,Y
S0041,29,hyponatremia,N,1,52,53,NOT APPLICABLE,,ARM3,Y
S0041,30,hematuria,Y,3,52,54,NOT APPLICABLE,,ARM3,Y
S0041,31,pneumonitis,Y,3,54,56,NOT APPLICABLE,,ARM3,Y
S0041,32,vomiting,N,2,55,56,NOT APPLICABLE,,ARM3,Y
S0041,33,back_pain,N,2,56,57,NOT APPLICABLE,,ARM3,Y
S0041,34,headache,N,2,57,58,NOT APPLICABLE,,ARM3,Y
S0041,35,sepsis,Y,3,57,59,NOT APPLICABLE,,ARM3,Y
S0041,36,acute_kidney_injury,Y,3,60,62,NOT APPLICABLE,,ARM3,Y
S0041,37,hematuria,N,1,61,62,NOT APPLICABLE,,ARM3,Y
S0041,38,hypothyroidism,N,1,68,69,NOT APPLICABLE,,ARM3,Y
S0041,39,hypertension_variable,N,1,70,71,NOT APPLICABLE,,ARM3,Y
S0041,40,blood_creatinine_increased,N,2,74,75,NOT APPLICABLE,,ARM3,Y
S0041,41,alanine_aminotransferase_increased,N,1,78,79,NOT APPLICABLE,,ARM3,Y
S0041,42,sleeplessness,N,2,79,80,NOT APPLICABLE,,ARM3,Y
S0041,43,dysgeusia,N,1,79,80,NOT APPLICABLE,,ARM3,Y
S0041,44,fever,N,2,82,83,NOT APPLICABLE,,ARM3,Y
S0041,45,diarrhea,N,2,83,84,NOT APPLICABLE,,ARM3,Y
S0041,46,hypomagnesemia,N,2,84,127,NOT APPLICABLE,,ARM3,Y
S0041,47,asthenia,N,2,86,127,NOT APPLICABLE,,ARM3,Y
S0041,48,decreased_platelet_count,N,2,88,127,NOT APPLICABLE,,ARM3,Y
S0041,49,lipase_increased,N,2,89,127,NOT APPLICABLE,,ARM3,Y
S0041,50,thrombocytopenia,N,1,94,127,NOT APPLICABLE,,ARM3,Y
S0041,51,abdominal_pain,N,2,94,127,NOT APPLICABLE,,ARM3,Y
S0042,1,coughing,N,2,2,3,NOT APPLICABLE,,ARM4,Y
S0042,2,hiccough,N,2,26,27,NOT APPLICABLE,,ARM4,Y
S0042,3,sleeplessness,N,2,37,38,NOT APPLICABLE,,ARM4,Y
S0042,4,fever,N,2,52,53,NOT APPLICABLE,,ARM4,Y
S0042,5,hypoalbuminemia,N,2,62,63,NOT APPLICABLE,,ARM4,Y
S0042,6,nausea,N,2,97,127,NOT APPLICABLE,,ARM4,Y
S0042,7,anemia,N,1,105,127,NOT APPLICABLE,,ARM4,Y
S0043,1,fever,N,1,71,72,NOT APPLICABLE,,ARM3,Y
S0044,1,hiccough,N,2,10,11,no_modification,DM004,ARM2,Y
S0044,2,hematuria,Y,3,10,12,NOT APPLICABLE,,ARM2,Y
S0044,3,hematuria,N,1,25,26,no_modification,DM004,ARM2,Y
S0044,4,dizziness,N,1,32,33,no_modification,DM004,ARM2,Y
S0044,5,hypertension_variable,N,2,32,33,no_modification,DM004,ARM2,Y
S0044,6,fatigue,N,2,42,43,no_modification,DM004,ARM2,Y
S0044,7,anorexia,N,2,42,43,no_modification,DM004,ARM2,Y
S0044,8,dysgeusia,N,1,44,45,no_modification,DM004,ARM2,Y
S0044,9,anemia,N,2,53,54,no_modification,DM004,ARM2,Y
S0044,10,headache,N,2,53,54,no_modification,DM004,ARM2,Y
S0044,11,urinary_tract_infection,N,2,68,69,no_modification,DM004,ARM2,Y
S0044,12,hypoalbuminemia,N,1,86,127,NOT APPLICABLE,,ARM2,Y
S0044,13,fever,N,1,89,127,NOT APPLICABLE,,ARM2,Y
S0044,14,decreased_platelet_count,Y,3,89,190,NOT APPLICABLE,,ARM2,Y
S0044,15,alanine_aminotransferase_increased,N,1,91,127,NOT APPLICABLE,,ARM2,Y
S0044,16,hyperkalemia,N,2,91,127,NOT APPLICABLE,,ARM2,Y
S0044,17,nausea,N,2,92,127,NOT APPLICABLE,,ARM2,Y
S0044,18,pruritus,N,2,93,127,NOT APPLICABLE,,ARM2,Y
S0044,19,lipase_increased,N,2,101,127,NOT APPLICABLE,,ARM2,Y
S0044,20,increased_frequency_of_micturition,N,2,104,127,NOT APPLICABLE,,ARM2,Y
S0045,1,rash_erythematous_macules_or_papules,N,1,3,4,NOT APPLICABLE,,ARM4,Y
S0045,2,hypoalbuminemia,N,2,26,27,NOT APPLICABLE,,ARM4,Y
S0045,3,hypocalcemia,N,1,31,32,NOT APPLICABLE,,ARM4,Y
S0045,4,decrease_in_appetite,N,2,40,41,NOT APPLICABLE,,ARM4,Y
S0045,5,sensory_neuropathy,N,2,41,42,NOT APPLICABLE,,ARM4,Y
S0045,6,sleeplessness,N,1,46,47,NOT APPLICABLE,,ARM4,Y
S0045,7,blood_creatinine_increased,N,1,54,55,NOT APPLICABLE,,ARM4,Y
S0045,8,dyspepsia,N,2,55,56,NOT APPLICABLE,,ARM4,Y
S0045,9,hypertension_variable,N,1,64,65,NOT APPLICABLE,,ARM4,Y
S0045,10,arthralgia,N,1,73,74,NOT APPLICABLE,,ARM4,Y
S0045,11,hyperphosphatemia,N,1,74,75,NOT APPLICABLE,,ARM4,Y
S0045,12,event,N,2,80,81,NOT APPLICABLE,,ARM4,Y
S0045,13,dysuria,N,1,93,127,NOT APPLICABLE,,ARM4,Y
S0045,14,dyspnea,N,2,94,127,NOT APPLICABLE,,ARM4,Y
S0045,15,anorexia,N,2,112,127,NOT APPLICABLE,,ARM4,Y
S0046,1,hypomagnesemia,N,2,2,3,no_modification,DM004,ARM2,Y
S0046,2,coughing,N,1,9,10,no_modification,DM004,ARM2,Y
S0046,3,nasal_congestion_finding,N,1,10,11,no_modification,DM004,ARM2,Y
S0046,4,dyspnea,N,2,14,15,no_modification,DM004,ARM2,Y
S0046,5,sleeplessness,N,2,19,20,no_modification,DM004,ARM2,Y
S0046,6,pruritus,N,1,19,20,no_modification,DM004,ARM2,Y
S0046,7,hypocalcemia,N,1,30,31,no_modification,DM004,ARM2,Y
S0046,8,abdominal_pain,N,2,36,37,no_modification,DM004,ARM2,Y
S0046,9,diarrhea,N,1,44,45,no_modification,DM004,ARM2,Y
S0046,10,hypoalbuminemia,N,1,46,47,no_modification,DM004,ARM2,Y
S0046,11,hematuria,N,1,56,57,no_modification,DM004,ARM2,Y
S0046,12,arthralgia,N,2,57,58,no_modification,DM004,ARM2,Y
S0046,13,dizziness,N,2,58,59,no_modification,DM004,ARM2,Y
S0046,14,dysuria,N,2,60,61,no_modification,DM004,ARM2,Y
S0046,15,decrease_in_appetite,N,1,62,63,no_modification,DM004,ARM2,Y
S0046,16,hypertension_variable,N,2,72,73,NOT APPLICABLE,,ARM2,Y
S0046,17,nausea,N,1,82,83,NOT APPLICABLE,,ARM2,Y
S0047,1,hyponatremia,N,2,37,38,no_modification,DM004,ARM2,Y
S0047,2,asthenia,N,1,38,39,no_modification,DM004,ARM2,Y
S0047,3,rash_erythematous_macules_or_papules,N,1,45,46,no_modification,DM004,ARM2,Y
S0047,4,anorexia,N,2,45,46,no_modification,DM004,ARM2,Y
S0047,5,nausea,N,1,46,47,no_modification,DM004,ARM2,Y
S0047,6,decreased_platelet_count,N,1,50,51,no_modification,DM004,ARM2,Y
S0047,7,anemia,N,2,56,57,no_modification,DM004,ARM2,Y
S0047,8,constipation,N,1,56,57,no_modification,DM004,ARM2,Y
S0047,9,vomiting,N,2,70,71,no_modification,DM004,ARM2,Y
S0047,10,hiccough,N,2,76,77,no_modification,DM004,ARM2,Y
S0047,11,dysgeusia,N,1,87,127,NOT APPLICABLE,,ARM2,Y
S0048,1,aspartate_aminotransferase_increased,N,1,3,4,no_modification,DM004,ARM2,Y
S0048,2,asthenia,N,2,19,20,no_modification,DM004,ARM2,Y
S0048,3,decreased_platelet_count,N,1,33,34,no_modification,DM004,ARM2,Y
S0048,4,decrease_in_appetite,N,2,36,37,no_modification,DM004,ARM2,Y
S0048,5,nausea,N,2,70,71,NOT APPLICABLE,,ARM2,Y
S0048,6,constipation,N,1,78,79,NOT APPLICABLE,,ARM2,Y
S0048,7,vomiting,N,2,90,127,NOT APPLICABLE,,ARM2,Y
S0049,1,nausea,N,1,2,3,NOT APPLICABLE,,ARM4,Y
S0049,2,fever,N,2,24,25,NOT APPLICABLE,,ARM4,Y
S0049,3,anemia,N,1,71,72,NOT APPLICABLE,,ARM4,Y
S0049,4,fatigue,N,1,113,127,NOT APPLICABLE,,ARM4,Y
S0050,1,event,N,1,2,3,NOT APPLICABLE,,ARM4,Y
S0050,2,hypertension_variable,N,2,9,10,NOT APPLICABLE,,ARM4,Y
S0050,3,dyspnea,N,1,19,20,NOT APPLICABLE,,ARM4,Y
S0050,4,pain_in_limb,N,2,19,20,NOT APPLICABLE,,ARM4,Y
S0050,5,rash_erythematous_macules_or_papules,N,1,28,29,NOT APPLICABLE,,ARM4,Y
S0050,6,decrease_in_appetite,N,2,29,30,NOT APPLICABLE,,ARM4,Y
S0050,7,hypocalcemia,N,2,47,48,NOT APPLICABLE,,ARM4,Y
S0050,8,nasal_congestion_finding,N,1,47,48,NOT APPLICABLE,,ARM4,Y
S0050,9,dizziness,N,1,50,51,NOT APPLICABLE,,ARM4,Y
S0050,10,hypoalbuminemia,N,1,65,66,NOT APPLICABLE,,ARM4,Y
S0050,11,dysuria,N,1,73,74,NOT APPLICABLE,,ARM4,Y
S0050,12,pruritus,N,2,89,127,NOT APPLICABLE,,ARM4,Y
S0050,13,creatinine_increased,N,1,89,127,NOT APPLICABLE,,ARM4,Y
S0050,14,arthralgia,N,1,90,127,NOT APPLICABLE,,ARM4,Y
S0050,15,coughing,N,1,99,127,NOT APPLICABLE,,ARM4,Y
S0050,16,alkaline_phosphatase_raised,N,1,99,127,NOT APPLICABLE,,ARM4,Y
S0051,1,anemia,N,2,98,127,NOT APPLICABLE,,ARM1,Y
S0052,1,dyspnea,N,1,13,14,NOT APPLICABLE,,ARM4,Y
S0052,2,myalgia,N,2,22,23,NOT APPLICABLE,,ARM4,Y
S0052,3,hypoalbuminemia,N,1,26,27,NOT APPLICABLE,,ARM4,Y
S0052,4,decrease_in_appetite,N,2,42,43,NOT APPLICABLE,,ARM4,Y
S0052,5,hypocalcemia,N,1,44,45,NOT APPLICABLE,,ARM4,Y
S0052,6,nasal_congestion_finding,N,1,50,51,NOT APPLICABLE,,ARM4,Y
S0052,7,arthralgia,N,1,53,54,NOT APPLICABLE,,ARM4,Y
S0052,8,rash_erythematous_macules_or_papules,N,1,63,64,NOT APPLICABLE,,ARM4,Y
S0052,9,hypertension_variable,N,2,64,65,NOT APPLICABLE,,ARM4,Y
S0052,10,other serious adverse events (not individually predicted),Y,3,77,79,NOT APPLICABLE,,ARM4,Y
S0053,1,hypoalbuminemia,N,1,3,4,no_modification,DM004,ARM2,Y
S0053,2,abdominal_pain,N,2,8,9,no_modification,DM004,ARM2,Y
S0053,3,dysuria,N,1,20,21,no_modification,DM004,ARM2,Y
S0053,4,hypocalcemia,N,1,23,24,no_modification,DM004,ARM2,Y
S0053,5,coughing,N,2,27,28,NOT APPLICABLE,,ARM2,Y
S0053,6,constipation,N,1,30,31,NOT APPLICABLE,,ARM2,Y
S0053,7,rash_erythematous_macules_or_papules,N,1,31,32,NOT APPLICABLE,,ARM2,Y
S0053,8,arthralgia,N,2,32,33,NOT APPLICABLE,,ARM2,Y
S0053,9,decrease_in_appetite,N,1,33,34,NOT APPLICABLE,,ARM2,Y
S0053,10,nasal_congestion_finding,N,1,34,35,NOT APPLICABLE,,ARM2,Y
S0053,11,hypertension_variable,N,1,36,37,NOT APPLICABLE,,ARM2,Y
S0053,12,pain_in_limb,N,2,42,43,NOT APPLICABLE,,ARM2,Y
S0053,13,other serious adverse events (not individually predicted),Y,3,50,52,NOT APPLICABLE,,ARM2,Y
S0053,14,hyponatremia,N,2,53,54,NOT APPLICABLE,,ARM2,Y
S0054,1,urinary_tract_infection,N,2,2,3,NOT APPLICABLE,,ARM3,Y
S0054,2,fever,Y,3,6,8,NOT APPLICABLE,,ARM3,Y
S0054,3,dyspnea,N,2,8,9,NOT APPLICABLE,,ARM3,Y
S0054,4,dizziness,N,1,8,9,NOT APPLICABLE,,ARM3,Y
S0054,5,alanine_aminotransferase_increased,N,2,11,12,hold,DM028,ARM3,Y
S0054,6,increased_frequency_of_micturition,N,1,11,12,NOT APPLICABLE,,ARM3,Y
S0054,7,blood_creatinine_increased,N,1,17,18,NOT APPLICABLE,,ARM3,Y
S0054,8,abdominal_pain,N,1,23,24,NOT APPLICABLE,,ARM3,Y
S0054,9,coughing,N,1,23,24,NOT APPLICABLE,,ARM3,Y
S0054,10,hypoalbuminemia,N,1,29,30,NOT APPLICABLE,,ARM3,Y
S0054,11,nausea,N,1,31,32,NOT APPLICABLE,,ARM3,Y
S0054,12,fever,N,1,36,37,NOT APPLICABLE,,ARM3,Y
S0054,13,hiccough,N,1,53,54,NOT APPLICABLE,,ARM3,Y
S0054,14,decrease_in_appetite,N,2,60,61,NOT APPLICABLE,,ARM3,Y
S0054,15,anorexia,N,2,67,68,NOT APPLICABLE,,ARM3,Y
S0054,16,anemia,N,2,72,73,NOT APPLICABLE,,ARM3,Y
S0054,17,hematuria,N,1,89,127,NOT APPLICABLE,,ARM3,Y
S0054,18,dysgeusia,N,2,90,127,NOT APPLICABLE,,ARM3,Y
S0055,1,creatinine,N,2,14,15,no_modification,DM004,ARM1,Y
S0055,2,palmar_plantar_erythrodysesthesia_syndrome,N,2,19,20,hold;no_modification,DM004;DM035,ARM1,Y
S0055,3,anemia,N,2,21,22,no_modification,DM004,ARM1,Y
S0055,4,dyspepsia,N,2,40,41,no_modification,DM004,ARM1,Y
S0055,5,diarrhea,N,2,40,41,hold;no_modification,DM004;DM026,ARM1,Y
S0055,6,pain,N,1,49,50,no_modification,DM004,ARM1,Y
S0055,7,constipation,N,2,56,57,no_modification,DM004,ARM1,Y
S0055,8,thrombocytopenia,N,1,73,74,no_modification,DM004,ARM1,Y
S0055,9,hyponatremia,N,1,74,75,no_modification,DM004,ARM1,Y
S0055,10,nausea,N,2,84,127,no_modification,DM004,ARM1,Y
S0055,11,chills,N,1,97,127,NOT APPLICABLE,,ARM1,Y
S0055,12,headache,N,1,111,127,NOT APPLICABLE,,ARM1,Y
S0056,1,rash_erythematous_macules_or_papules,N,1,28,29,no_modification,DM004,ARM2,Y
S0056,2,vomiting,N,2,33,34,no_modification,DM004,ARM2,Y
S0056,3,anemia,N,1,57,58,no_modification,DM004,ARM2,Y
S0056,4,abdominal_pain,N,1,79,80,no_modification,DM004,ARM2,Y
S0056,5,dizziness,N,2,90,127,NOT APPLICABLE,,ARM2,Y
S0056,6,nausea,N,1,108,127,NOT APPLICABLE,,ARM2,Y
S0056,7,hiccough,N,2,112,127,NOT APPLICABLE,,ARM2,Y
S0057,1,anemia,N,2,17,18,NOT APPLICABLE,,ARM3,Y
S0058,1,headache,N,2,14,15,no_modification,DM004,ARM2,Y
S0058,2,nausea,N,1,23,24,no_modification,DM004,ARM2,Y
S0058,3,rash_erythematous_macules_or_papules,N,2,28,29,no_modification,DM004,ARM2,Y
S0058,4,other serious adverse events (not individually predicted),Y,3,32,34,NOT APPLICABLE,,ARM2,Y
S0058,5,vomiting,N,2,44,45,no_modification,DM004,ARM2,Y
S0058,6,fever,N,1,45,46,no_modification,DM004,ARM2,Y
S0058,7,anemia,N,1,53,54,no_modification,DM004,ARM2,Y
S0058,8,hematuria,N,2,70,71,no_modification,DM004,ARM2,Y
S0058,9,coughing,N,2,81,82,no_modification,DM004,ARM2,Y
S0058,10,increased_frequency_of_micturition,N,1,83,84,no_modification,DM004,ARM2,Y
S0059,1,hypophosphatemia,N,2,12,13,no_modification,DM004,ARM2,Y
S0059,2,diarrhea,N,1,14,15,no_modification,DM004,ARM2,Y
S0059,3,anemia,Y,3,15,17,NOT APPLICABLE,,ARM2,Y
S0059,4,dysgeusia,N,1,20,21,no_modification,DM004,ARM2,Y
S0059,5,chills,N,1,23,24,no_modification,DM004,ARM2,Y
S0059,6,pain,N,2,37,38,no_modification,DM004,ARM2,Y
S0059,7,creatinine_increased,N,2,56,57,no_modification,DM004,ARM2,Y
S0059,8,headache,N,1,64,65,no_modification,DM004,ARM2,Y
S0059,9,sensory_neuropathy,N,1,70,71,no_modification,DM004,ARM2,Y
S0059,10,arthralgia,N,1,74,75,no_modification,DM004,ARM2,Y
S0059,11,hemoglobin_normal_12_16_gm,N,2,96,127,NOT APPLICABLE,,ARM2,Y
S0059,12,anorexia,N,2,106,127,NOT APPLICABLE,,ARM2,Y
S0060,1,nasal_congestion_finding,N,1,7,8,no_modification,DM004,ARM2,Y
S0060,2,hypoalbuminemia,N,2,16,17,no_modification,DM004,ARM2,Y
S0060,3,diarrhea,N,1,22,23,no_modification,DM004,ARM2,Y
S0060,4,dysuria,N,2,22,23,no_modification,DM004,ARM2,Y
S0060,5,arthralgia,N,2,40,41,no_modification,DM004,ARM2,Y
S0060,6,abdominal_pain,N,2,44,45,no_modification,DM004,ARM2,Y
S0060,7,pneumonia,Y,3,45,47,NOT APPLICABLE,,ARM2,Y
S0060,8,dyspnea,N,1,51,52,no_modification,DM004,ARM2,Y
S0060,9,event,N,2,78,79,no_modification,DM004,ARM2,Y
S0060,10,hypertension_variable,N,1,80,81,no_modification,DM004,ARM2,Y
S0060,11,dyspepsia,N,1,89,127,NOT APPLICABLE,,ARM2,Y
S0060,12,hyperglycemia,N,2,106,127,NOT APPLICABLE,,ARM2,Y
S0061,1,rash_erythematous_macules_or_papules,N,2,34,35,NOT APPLICABLE,,ARM4,Y
S0061,2,vomiting,N,1,37,38,NOT APPLICABLE,,ARM4,Y
S0061,3,dyspnea,N,2,67,68,NOT APPLICABLE,,ARM4,Y
S0061,4,decreased_platelet_count,N,1,69,70,NOT APPLICABLE,,ARM4,Y
S0061,5,sleeplessness,N,2,75,76,NOT APPLICABLE,,ARM4,Y
S0061,6,other serious adverse events (not individually predicted),Y,3,83,127,NOT APPLICABLE,,ARM4,Y
S0061,7,decrease_in_appetite,N,1,90,127,NOT APPLICABLE,,ARM4,Y
S0061,8,fever,N,2,99,127,NOT APPLICABLE,,ARM4,Y
S0061,9,nausea,N,2,103,127,NOT APPLICABLE,,ARM4,Y
S0062,1,hair_loss/alopecia_(scalp_or_body),N,2,1,2,no_modification,DM004,ARM1,Y
S0062,2,aspartate_aminotransferase_increased,N,1,1,2,no_modification,DM004,ARM1,Y
S0062,3,hypertension_variable,N,1,28,29,no_modification,DM004,ARM1,Y
S0062,4,palmar_plantar_erythrodysesthesia_syndrome,N,2,39,40,hold;no_modification,DM004;DM035,ARM1,Y
S0062,5,fever,N,1,40,41,no_modification,DM004,ARM1,Y
S0062,6,coughing,N,2,40,41,no_modification,DM004,ARM1,Y
S0062,7,neuropathy:_sensory,N,2,40,41,no_modification,DM004,ARM1,Y
S0062,8,chills,N,1,41,42,no_modification,DM004,ARM1,Y
S0062,9,anemia,N,2,44,45,no_modification,DM004,ARM1,Y
S0062,10,nausea,N,1,45,46,no_modification,DM004,ARM1,Y
S0062,11,pain,N,2,64,65,no_modification,DM004,ARM1,Y
S0062,12,hypophosphatemia,N,2,69,70,no_modification,DM004,ARM1,Y
S0062,13,dizziness,N,1,77,78,no_modification,DM004,ARM1,Y
S0062,14,creatinine_increased,N,1,88,127,NOT APPLICABLE,,ARM1,Y
S0062,15,constipation,N,2,92,127,NOT APPLICABLE,,ARM1,Y
S0062,16,hemoglobin_normal_12_16_gm,N,2,94,127,NOT APPLICABLE,,ARM1,Y
S0062,17,anemia,Y,3,96,190,NOT APPLICABLE,,ARM1,Y
S0063,1,diarrhea,N,1,6,7,no_modification,DM004,ARM2,Y
S0063,2,decrease_in_appetite,N,2,7,8,no_modification,DM004,ARM2,Y
S0063,3,headache,N,1,7,8,no_modification,DM004,ARM2,Y
S0063,4,hiccough,N,1,12,13,no_modification,DM004,ARM2,Y
S0063,5,hematuria,N,1,14,15,no_modification,DM004,ARM2,Y
S0063,6,hyperkalemia,N,1,16,17,no_modification,DM004,ARM2,Y
S0063,7,dyspnea,N,1,18,19,no_modification,DM004,ARM2,Y
S0063,8,dizziness,N,1,18,19,no_modification,DM004,ARM2,Y
S0063,9,alanine_aminotransferase_increased,N,2,24,25,no_modification,DM004,ARM2,Y
S0063,10,lipase_increased,N,1,26,27,no_modification,DM004,ARM2,Y
S0063,11,hypoalbuminemia,N,2,28,29,no_modification,DM004,ARM2,Y
S0063,12,urinary_tract_infection,Y,3,30,32,NOT APPLICABLE,,ARM2,Y
S0063,13,pneumonia,Y,3,43,45,NOT APPLICABLE,,ARM2,Y
S0063,14,nausea,N,1,47,48,no_modification,DM004,ARM2,Y
S0063,15,hematuria,Y,3,51,53,NOT APPLICABLE,,ARM2,Y
S0063,16,urinary_tract_infection,N,1,52,53,no_modification,DM004,ARM2,Y
S0063,17,vomiting,N,1,53,54,no_modification,DM004,ARM2,Y
S0063,18,fever,N,1,59,60,no_modification,DM004,ARM2,Y
S0063,19,dysgeusia,N,2,66,67,no_modification,DM004,ARM2,Y
S0063,20,decreased_platelet_count,Y,3,71,73,NOT APPLICABLE,,ARM2,Y
S0063,21,leukopenia,N,2,79,80,no_modification,DM004,ARM2,Y
S0063,22,coughing,N,1,83,84,no_modification,DM004,ARM2,Y
S0063,23,sleeplessness,N,1,84,127,no_modification,DM004,ARM2,Y
S0063,24,constipation,N,1,85,127,NOT APPLICABLE,,ARM2,Y
S0063,25,hypokalemia,N,2,100,127,NOT APPLICABLE,,ARM2,Y
S0063,26,decreased_platelet_count,N,1,104,127,NOT APPLICABLE,,ARM2,Y
S0063,27,hypertension_variable,N,1,107,127,NOT APPLICABLE,,ARM2,Y
S0063,28,back_pain,N,1,107,127,NOT APPLICABLE,,ARM2,Y
S0063,29,anemia,N,1,110,127,NOT APPLICABLE,,ARM2,Y
S0063,30,sepsis,Y,3,110,190,NOT APPLICABLE,,ARM2,Y
S0063,31,anorexia,N,2,112,127,NOT APPLICABLE,,ARM2,Y
S0064,1,fever,N,2,14,15,NOT APPLICABLE,,ARM3,Y
S0064,2,nausea,N,1,24,25,NOT APPLICABLE,,ARM3,Y
S0064,3,alanine_aminotransferase_increased,N,1,40,41,NOT APPLICABLE,,ARM3,Y
S0064,4,vomiting,N,2,44,45,NOT APPLICABLE,,ARM3,Y
S0064,5,hematuria,N,2,62,63,NOT APPLICABLE,,ARM3,Y
S0064,6,weight_loss,N,2,69,70,NOT APPLICABLE,,ARM3,Y
S0064,7,increased_frequency_of_micturition,N,2,69,70,NOT APPLICABLE,,ARM3,Y
S0064,8,urinary_tract_infection,N,1,70,71,NOT APPLICABLE,,ARM3,Y
S0064,9,hiccough,N,1,73,74,NOT APPLICABLE,,ARM3,Y
S0064,10,anemia,N,1,81,82,NOT APPLICABLE,,ARM3,Y
S0064,11,hypokalemia,N,2,85,127,NOT APPLICABLE,,ARM3,Y
S0064,12,fatigue,N,1,94,127,NOT APPLICABLE,,ARM3,Y
S0065,1,constipation,N,1,8,9,no_modification,DM004,ARM2,Y
S0065,2,pain,N,2,10,11,no_modification,DM004,ARM2,Y
S0065,3,nausea,N,2,30,31,no_modification,DM004,ARM2,Y
S0065,4,creatinine_increased,N,1,38,39,no_modification,DM004,ARM2,Y
S0065,5,diarrhea,N,2,54,55,no_modification,DM004,ARM2,Y
S0065,6,palmar_plantar_erythrodysesthesia_syndrome,N,1,55,56,no_modification,DM004,ARM2,Y
S0065,7,coughing,N,2,66,67,no_modification,DM004,ARM2,Y
S0065,8,alkaline_phosphatase_raised,N,1,76,77,no_modification,DM004,ARM2,Y
S0065,9,anemia,N,1,77,78,no_modification,DM004,ARM2,Y
S0065,10,hypoalbuminemia,N,2,92,127,NOT APPLICABLE,,ARM2,Y
S0065,11,dysgeusia,N,1,107,127,NOT APPLICABLE,,ARM2,Y
S0065,12,hemoglobin_normal_12_16_gm,N,1,112,127,NOT APPLICABLE,,ARM2,Y
S0065,13,dyspepsia,N,1,114,127,NOT APPLICABLE,,ARM2,Y
S0066,1,hypothyroidism,N,1,23,24,no_modification,DM004,ARM1,Y
S0066,2,decreased_platelet_count,N,1,32,33,no_modification,DM004,ARM1,Y
S0066,3,hiccough,N,1,37,38,no_modification,DM004,ARM1,Y
S0066,4,rash_erythematous_macules_or_papules,N,2,57,58,no_modification,DM004,ARM1,Y
S0066,5,nausea,N,2,60,61,no_modification,DM004,ARM1,Y
S0066,6,anemia,N,2,63,64,no_modification,DM004,ARM1,Y
S0066,7,dizziness,N,2,63,64,no_modification,DM004,ARM1,Y
S0066,8,lipase_increased,N,2,65,66,no_modification,DM004,ARM1,Y
S0066,9,dyspnea,N,2,68,69,no_modification,DM004,ARM1,Y
S0066,10,anorexia,N,1,68,69,no_modification,DM004,ARM1,Y
S0066,11,hypokalemia,N,2,78,79,no_modification,DM004,ARM1,Y
S0066,12,fever,N,1,96,127,NOT APPLICABLE,,ARM1,Y
S0066,13,neutrophil_count_decreased,N,2,96,127,NOT APPLICABLE,,ARM1,Y
S0066,14,headache,N,1,109,127,NOT APPLICABLE,,ARM1,Y
S0067,1,aspartate_aminotransferase_increased,N,2,6,7,no_modification,DM004,ARM2,Y
S0067,2,nausea,N,2,14,15,no_modification,DM004,ARM2,Y
S0067,3,decreased_platelet_count,N,2,18,19,no_modification,DM004,ARM2,Y
S0067,4,rash_erythematous_macules_or_papules,N,1,29,30,no_modification,DM004,ARM2,Y
S0067,5,urinary_tract_infection,N,2,34,35,no_modification,DM004,ARM2,Y
S0067,6,hyperglycemia,N,1,39,40,no_modification,DM004,ARM2,Y
S0067,7,fever,N,2,43,44,no_modification,DM004,ARM2,Y
S0067,8,hypomagnesemia,N,1,77,78,NOT APPLICABLE,,ARM2,Y
S0067,9,anorexia,N,1,82,83,NOT APPLICABLE,,ARM2,Y
S0068,1,pain,N,1,17,18,no_modification,DM004,ARM1,Y
S0068,2,dizziness,N,2,30,31,no_modification,DM004,ARM1,Y
S0068,3,chills,N,1,32,33,no_modification,DM004,ARM1,Y
S0068,4,leukopenia,N,1,40,41,no_modification,DM004,ARM1,Y
S0068,5,anemia,N,1,44,45,no_modification,DM004,ARM1,Y
S0068,6,hyperglycemia,N,1,46,47,no_modification,DM004,ARM1,Y
S0068,7,fatigue,N,2,55,56,no_modification,DM004,ARM1,Y
S0068,8,thrombocytopenia,N,1,60,61,no_modification,DM004,ARM1,Y
S0068,9,palmar_plantar_erythrodysesthesia_syndrome,N,1,70,71,hold;no_modification,DM004;DM035,ARM1,Y
S0068,10,hemoglobin_normal_12_16_gm,N,1,100,127,NOT APPLICABLE,,ARM1,Y
S0068,11,constipation,N,1,112,127,NOT APPLICABLE,,ARM1,Y
S0069,1,coughing,N,1,7,8,no_modification,DM004,ARM1,Y
S0069,2,decreased_platelet_count,N,2,16,17,no_modification,DM004,ARM1,Y
S0069,3,headache,N,1,52,53,no_modification,DM004,ARM1,Y
S0069,4,arthralgia,N,2,57,58,no_modification,DM004,ARM1,Y
S0069,5,thrombocytopenia,N,1,70,71,NOT APPLICABLE,,ARM1,Y
S0069,6,dizziness,N,1,73,74,NOT APPLICABLE,,ARM1,Y
S0069,7,anemia,N,2,76,77,NOT APPLICABLE,,ARM1,Y
S0070,1,urinary_tract_infection,N,2,34,35,no_modification,DM004,ARM1,Y
S0070,2,palmar_plantar_erythrodysesthesia_syndrome,N,2,42,43,hold;no_modification,DM004;DM035,ARM1,Y
S0070,3,dizziness,N,1,48,49,no_modification,DM004,ARM1,Y
S0070,4,pain,N,1,49,50,no_modification,DM004,ARM1,Y
S0070,5,dry_skin,N,1,70,71,NOT APPLICABLE,,ARM1,Y
S0070,6,anemia,N,2,73,74,NOT APPLICABLE,,ARM1,Y
S0070,7,"neoplasms_benign,_malignant_and_unspecified_(incl_cysts_and_polyps)_-_other,_specify",Y,3,77,79,NOT APPLICABLE,,ARM1,Y
S0070,8,chills,N,2,80,81,NOT APPLICABLE,,ARM1,Y
S0070,9,diarrhea,N,2,81,82,NOT APPLICABLE,,ARM1,Y
S0070,10,thrombocytopenia,N,1,90,127,NOT APPLICABLE,,ARM1,Y
S0071,1,palmar_plantar_erythrodysesthesia_syndrome,N,2,14,15,hold,DM035,ARM3,Y
S0071,2,pain,N,2,15,16,NOT APPLICABLE,,ARM3,Y
S0071,3,"neoplasms_benign,_malignant_and_unspecified_(incl_cysts_and_polyps)_-_other,_specify",Y,3,16,18,NOT APPLICABLE,,ARM3,Y
S0071,4,creatinine_increased,N,1,18,19,NOT APPLICABLE,,ARM3,Y
S0071,5,other serious adverse events (not individually predicted),Y,3,47,49,NOT APPLICABLE,,ARM3,Y
S0071,6,alanine_aminotransferase_increased,N,1,57,58,NOT APPLICABLE,,ARM3,Y
S0071,7,headache,N,1,62,63,NOT APPLICABLE,,ARM3,Y
S0071,8,chills,N,1,63,64,NOT APPLICABLE,,ARM3,Y
S0071,9,anemia,N,1,76,77,NOT APPLICABLE,,ARM3,Y
S0071,10,constipation,N,2,83,84,NOT APPLICABLE,,ARM3,Y
S0071,11,diarrhea,N,1,91,127,NOT APPLICABLE,,ARM3,Y
S0072,1,hyperglycemia,N,2,3,4,no_modification,DM004,ARM1,Y
S0072,2,coughing,N,2,11,12,no_modification,DM004,ARM1,Y
S0072,3,hypertension_variable,N,1,19,20,no_modification,DM004,ARM1,Y
S0072,4,hypoalbuminemia,N,2,31,32,no_modification,DM004,ARM1,Y
S0072,5,dehydration,N,2,35,36,no_modification,DM004,ARM1,Y
S0072,6,nasal_congestion_finding,N,1,43,44,no_modification,DM004,ARM1,Y
S0072,7,fever,N,1,52,53,no_modification,DM004,ARM1,Y
S0072,8,event,N,2,56,57,no_modification,DM004,ARM1,Y
S0072,9,other serious adverse events (not individually predicted),Y,3,60,62,NOT APPLICABLE,,ARM1,Y
S0072,10,dysuria,N,2,66,67,NOT APPLICABLE,,ARM1,Y
S0072,11,aspartate_aminotransferase_increased,N,2,68,69,NOT APPLICABLE,,ARM1,Y
S0072,12,hyperphosphatemia,N,2,70,71,NOT APPLICABLE,,ARM1,Y
S0072,13,hypocalcemia,N,1,71,72,NOT APPLICABLE,,ARM1,Y
S0072,14,arthralgia,N,2,72,73,NOT APPLICABLE,,ARM1,Y
S0072,15,hyponatremia,N,1,79,80,NOT APPLICABLE,,ARM1,Y
S0072,16,dizziness,N,2,79,80,NOT APPLICABLE,,ARM1,Y
S0073,1,dyspepsia,N,2,14,15,NOT APPLICABLE,,ARM3,Y
S0073,2,proteinuria,N,2,19,20,NOT APPLICABLE,,ARM3,Y
S0073,3,dysuria,N,1,19,20,NOT APPLICABLE,,ARM3,Y
S0073,4,nausea,N,2,29,30,NOT APPLICABLE,,ARM3,Y
S0073,5,dry_skin,N,1,35,36,NOT APPLICABLE,,ARM3,Y
S0073,6,hypertension_variable,N,1,37,38,NOT APPLICABLE,,ARM3,Y
S0073,7,hypoalbuminemia,N,2,37,38,NOT APPLICABLE,,ARM3,Y
S0073,8,event,N,2,47,48,NOT APPLICABLE,,ARM3,Y
S0073,9,decrease_in_appetite,N,1,64,65,NOT APPLICABLE,,ARM3,Y
S0073,10,creatinine_increased,N,2,66,67,NOT APPLICABLE,,ARM3,Y
S0073,11,nasal_congestion_finding,N,1,69,70,NOT APPLICABLE,,ARM3,Y
S0073,12,arthralgia,N,1,75,76,NOT APPLICABLE,,ARM3,Y
S0074,1,nasal_congestion_finding,N,2,23,24,NOT APPLICABLE,,ARM4,Y
S0074,2,pain_in_limb,N,2,25,26,NOT APPLICABLE,,ARM4,Y
S0074,3,pain,N,1,33,34,NOT APPLICABLE,,ARM4,Y
S0074,4,hypertension_variable,N,1,35,36,NOT APPLICABLE,,ARM4,Y
S0074,5,dysuria,N,2,39,40,NOT APPLICABLE,,ARM4,Y
S0074,6,event,N,2,42,43,NOT APPLICABLE,,ARM4,Y
S0074,7,pruritus,N,1,43,44,NOT APPLICABLE,,ARM4,Y
S0074,8,hyperphosphatemia,N,1,80,81,NOT APPLICABLE,,ARM4,Y
S0074,9,neutrophil_count_decreased,N,1,82,83,NOT APPLICABLE,,ARM4,Y
S0074,10,hypoalbuminemia,N,1,85,127,NOT APPLICABLE,,ARM4,Y
S0074,11,arthralgia,N,2,112,127,NOT APPLICABLE,,ARM4,Y
S0075,1,aspartate_aminotransferase_increased,N,2,16,17,hold,DM028,ARM3,Y
S0075,2,anemia,N,1,18,19,NOT APPLICABLE,,ARM3,Y
S0075,3,decreased_platelet_count,N,2,25,26,NOT APPLICABLE,,ARM3,Y
S0075,4,leukopenia,N,1,34,35,NOT APPLICABLE,,ARM3,Y
S0075,5,hyperglycemia,N,1,59,60,NOT APPLICABLE,,ARM3,Y
S0075,6,nausea,N,1,60,61,NOT APPLICABLE,,ARM3,Y
S0075,7,anorexia,N,1,60,61,NOT APPLICABLE,,ARM3,Y
S0075,8,other serious adverse events (not individually predicted),Y,3,64,66,NOT APPLICABLE,,ARM3,Y
S0075,9,hypomagnesemia,N,1,70,71,NOT APPLICABLE,,ARM3,Y
S0076,1,nausea,N,1,29,30,NOT APPLICABLE,,ARM4,Y
S0076,2,hyperkalemia,N,2,36,37,NOT APPLICABLE,,ARM4,Y
S0077,1,thrombocytopenia,N,2,20,21,no_modification,DM004,ARM2,Y
S0077,2,hemoglobin_normal_12_16_gm,N,2,23,24,no_modification,DM004,ARM2,Y
S0077,3,aspartate_aminotransferase_increased,N,1,31,32,no_modification,DM004,ARM2,Y
S0077,4,dizziness,N,2,37,38,no_modification,DM004,ARM2,Y
S0077,5,palmar_plantar_erythrodysesthesia_syndrome,N,2,41,42,no_modification,DM004,ARM2,Y
S0077,6,pain,N,1,66,67,no_modification,DM004,ARM2,Y
S0077,7,hematuria,N,1,77,78,no_modification,DM004,ARM2,Y
S0077,8,hyperglycemia,N,1,83,84,no_modification,DM004,ARM2,Y
S0077,9,depression_dominant,N,1,90,127,NOT APPLICABLE,,ARM2,Y
S0077,10,constipation,N,1,100,127,NOT APPLICABLE,,ARM2,Y
S0078,1,hypertension_variable,N,1,2,3,NOT APPLICABLE,,ARM4,Y
S0078,2,diarrhea,N,2,4,5,hold,DM026,ARM4,Y
S0078,3,aspartate_aminotransferase_increased,N,2,10,11,hold,DM028,ARM4,Y
S0078,4,anemia,N,1,11,12,NOT APPLICABLE,,ARM4,Y
S0078,5,anemia,Y,3,46,48,NOT APPLICABLE,,ARM4,Y
S0078,6,hypophosphatemia,N,2,53,54,NOT APPLICABLE,,ARM4,Y
S0078,7,pain,N,2,55,56,NOT APPLICABLE,,ARM4,Y
S0078,8,hemoglobin_normal_12_16_gm,N,1,65,66,NOT APPLICABLE,,ARM4,Y
S0078,9,diarrhea,N,2,67,68,NOT APPLICABLE,,ARM4,Y
S0078,10,coughing,N,1,71,72,NOT APPLICABLE,,ARM4,Y
S0078,11,chills,N,1,81,82,NOT APPLICABLE,,ARM4,Y
S0078,12,back_pain,N,1,85,127,NOT APPLICABLE,,ARM4,Y
S0078,13,sleeplessness,N,2,89,127,NOT APPLICABLE,,ARM4,Y
S0079,1,anemia,N,2,13,14,no_modification,DM004,ARM2,Y
S0079,2,hypoalbuminemia,N,1,58,59,no_modification,DM004,ARM2,Y
S0080,1,coughing,N,2,3,4,no_modification,DM004,ARM2,Y
S0080,2,acute_kidney_injury,Y,3,6,8,NOT APPLICABLE,,ARM2,Y
S0080,3,other serious adverse events (not individually predicted),Y,3,7,9,NOT APPLICABLE,,ARM2,Y
S0080,4,asthenia,N,1,8,9,NOT APPLICABLE,,ARM2,Y
S0080,5,dyspnea,N,1,11,12,NOT APPLICABLE,,ARM2,Y
S0080,6,nausea,N,1,12,13,NOT APPLICABLE,,ARM2,Y
S0080,7,decreased_platelet_count,N,2,27,28,NOT APPLICABLE,,ARM2,Y
S0080,8,abdominal_pain,N,1,31,32,NOT APPLICABLE,,ARM2,Y
S0080,9,vomiting,N,1,36,37,NOT APPLICABLE,,ARM2,Y
S0081,1,dyspnea,N,1,23,24,NOT APPLICABLE,,ARM4,Y
S0081,2,anemia,N,1,32,33,NOT APPLICABLE,,ARM4,Y
S0081,3,proteinuria,N,1,37,38,NOT APPLICABLE,,ARM4,Y
S0081,4,dyspepsia,N,1,41,42,NOT APPLICABLE,,ARM4,Y
S0081,5,arthralgia,N,1,42,43,NOT APPLICABLE,,ARM4,Y
S0081,6,event,N,1,43,44,NOT APPLICABLE,,ARM4,Y
S0081,7,nasal_congestion_finding,N,1,44,45,NOT APPLICABLE,,ARM4,Y
S0081,8,hypoalbuminemia,N,1,61,62,NOT APPLICABLE,,ARM4,Y
S0081,9,hyperphosphatemia,N,2,65,66,NOT APPLICABLE,,ARM4,Y
S0081,10,decrease_in_appetite,N,1,72,73,NOT APPLICABLE,,ARM4,Y
S0081,11,sleeplessness,N,2,79,80,NOT APPLICABLE,,ARM4,Y
S0081,12,hypertension_variable,N,1,84,127,NOT APPLICABLE,,ARM4,Y
S0081,13,dry_skin,N,1,92,127,NOT APPLICABLE,,ARM4,Y
S0081,14,dysuria,N,2,94,127,NOT APPLICABLE,,ARM4,Y
S0082,1,dry_skin,N,1,12,13,no_modification,DM004,ARM1,Y
S0082,2,hypertension_variable,N,2,26,27,no_modification,DM004,ARM1,Y
S0082,3,pain,N,2,29,30,no_modification,DM004,ARM1,Y
S0082,4,dehydration,N,1,36,37,no_modification,DM004,ARM1,Y
S0082,5,thrombocytopenia,N,1,51,52,no_modification,DM004,ARM1,Y
S0082,6,creatinine_increased,N,2,57,58,no_modification,DM004,ARM1,Y
S0082,7,anemia,N,2,59,60,no_modification,DM004,ARM1,Y
S0082,8,other serious adverse events (not individually predicted),Y,3,73,75,NOT APPLICABLE,,ARM1,Y
S0082,9,constipation,N,1,83,84,no_modification,DM004,ARM1,Y
S0082,10,"neoplasms_benign,_malignant_and_unspecified_(incl_cysts_and_polyps)_-_other,_specify",Y,3,102,190,NOT APPLICABLE,,ARM1,Y
S0083,1,urinary_tract_infection,N,1,4,5,NOT APPLICABLE,,ARM4,Y
S0083,2,fever,N,1,16,17,NOT APPLICABLE,,ARM4,Y
S0083,3,paresthesia,N,2,16,17,NOT APPLICABLE,,ARM4,Y
S0083,4,increased_frequency_of_micturition,N,2,16,17,NOT APPLICABLE,,ARM4,Y
S0083,5,hypoalbuminemia,N,1,17,18,NOT APPLICABLE,,ARM4,Y
S0083,6,fever,Y,3,17,19,NOT APPLICABLE,,ARM4,Y
S0083,7,back_pain,N,2,20,21,NOT APPLICABLE,,ARM4,Y
S0083,8,hematuria,N,1,24,25,NOT APPLICABLE,,ARM4,Y
S0083,9,decreased_platelet_count,N,2,35,36,NOT APPLICABLE,,ARM4,Y
S0083,10,dizziness,N,1,49,50,NOT APPLICABLE,,ARM4,Y
S0083,11,nausea,N,1,69,70,NOT APPLICABLE,,ARM4,Y
S0083,12,sepsis,Y,3,69,71,NOT APPLICABLE,,ARM4,Y
S0083,13,anemia,N,2,71,72,NOT APPLICABLE,,ARM4,Y
S0083,14,diarrhea,N,1,80,81,NOT APPLICABLE,,ARM4,Y
S0083,15,hiccough,N,1,87,127,NOT APPLICABLE,,ARM4,Y
S0083,16,fatigue,N,1,88,127,NOT APPLICABLE,,ARM4,Y
S0084,1,dry_skin,N,2,18,19,no_modification,DM004,ARM2,Y
S0084,2,pain,N,1,20,21,no_modification,DM004,ARM2,Y
S0084,3,hematuria,N,1,29,30,no_modification,DM004,ARM2,Y
S0084,4,diarrhea,N,2,47,48,no_modification,DM004,ARM2,Y
S0084,5,thrombocytopenia,N,2,63,64,no_modification,DM004,ARM2,Y
S0084,6,anemia,N,1,65,66,no_modification,DM004,ARM2,Y
S0084,7,chills,N,2,72,73,no_modification,DM004,ARM2,Y
S0084,8,coughing,N,2,85,127,NOT APPLICABLE,,ARM2,Y
S0084,9,palmar_plantar_erythrodysesthesia_syndrome,N,1,101,127,NOT APPLICABLE,,ARM2,Y
S0084,10,hypertension_variable,N,2,107,127,NOT APPLICABLE,,ARM2,Y
S0085,1,chills,N,2,5,6,no_modification,DM004,ARM1,Y
S0085,2,nausea,N,1,9,10,no_modification,DM004,ARM1,Y
S0085,3,thrombocytopenia,N,2,17,18,no_modification,DM004,ARM1,Y
S0085,4,constipation,N,2,18,19,no_modification,DM004,ARM1,Y
S0085,5,pruritus,N,1,18,19,no_modification,DM004,ARM1,Y
S0085,6,creatinine_increased,N,2,22,23,no_modification,DM004,ARM1,Y
S0085,7,pain,N,2,55,56,no_modification,DM004,ARM1,Y
S0085,8,hypertension_variable,N,1,55,56,no_modification,DM004,ARM1,Y
S0085,9,headache,N,2,74,75,no_modification,DM004,ARM1,Y
S0085,10,dysgeusia,N,1,78,79,no_modification,DM004,ARM1,Y
S0085,11,diarrhea,N,2,81,82,hold;no_modification,DM004;DM026,ARM1,Y
S0085,12,hemoglobin_normal_12_16_gm,N,2,104,127,NOT APPLICABLE,,ARM1,Y
S0085,13,coughing,N,2,110,127,NOT APPLICABLE,,ARM1,Y
S0086,1,hiccough,N,1,1,2,no_modification,DM004,ARM1,Y
S0086,2,hypertension_variable,N,2,9,10,no_modification,DM004,ARM1,Y
S0086,3,lipase_increased,N,2,33,34,no_modification,DM004,ARM1,Y
S0086,4,hypoalbuminemia,N,2,34,35,no_modification,DM004,ARM1,Y
S0086,5,hematuria,N,2,46,47,no_modification,DM004,ARM1,Y
S0086,6,anorexia,N,2,50,51,no_modification,DM004,ARM1,Y
S0086,7,fever,N,2,64,65,no_modification,DM004,ARM1,Y
S0086,8,urinary_tract_infection,Y,3,71,73,NOT APPLICABLE,,ARM1,Y
S0086,9,nausea,N,2,75,76,no_modification,DM004,ARM1,Y
S0086,10,decreased_platelet_count,Y,3,77,79,NOT APPLICABLE,,ARM1,Y
S0086,11,anemia,N,1,98,127,NOT APPLICABLE,,ARM1,Y
S0086,12,fatigue,N,1,103,127,NOT APPLICABLE,,ARM1,Y
S0087,1,nausea,N,1,2,3,NOT APPLICABLE,,ARM3,Y
S0087,2,decreased_platelet_count,N,2,25,26,NOT APPLICABLE,,ARM3,Y
S0087,3,hematuria,N,2,28,29,NOT APPLICABLE,,ARM3,Y
S0087,4,thrombocytopenia,N,2,37,38,NOT APPLICABLE,,ARM3,Y
S0087,5,anemia,N,1,52,53,NOT APPLICABLE,,ARM3,Y
S0087,6,hypokalemia,N,1,75,76,NOT APPLICABLE,,ARM3,Y
S0087,7,vomiting,N,2,77,78,NOT APPLICABLE,,ARM3,Y
S0087,8,rash_erythematous_macules_or_papules,N,1,77,78,NOT APPLICABLE,,ARM3,Y
S0087,9,fever,N,2,85,127,NOT APPLICABLE,,ARM3,Y
S0087,10,hiccough,N,2,87,127,NOT APPLICABLE,,ARM3,Y
S0087,11,other serious adverse events (not individually predicted),Y,3,91,190,NOT APPLICABLE,,ARM3,Y
S0088,1,hyperkalemia,N,2,2,3,no_modification,DM004,ARM2,Y
S0088,2,hypertension_variable,N,2,4,5,no_modification,DM004,ARM2,Y
S0088,3,nasal_congestion_finding,N,1,10,11,no_modification,DM004,ARM2,Y
S0088,4,arthralgia,N,2,37,38,no_modification,DM004,ARM2,Y
S0088,5,hypoalbuminemia,N,1,52,53,no_modification,DM004,ARM2,Y
S0088,6,dyspnea,N,1,73,74,NOT APPLICABLE,,ARM2,Y
S0088,7,hypocalcemia,N,2,77,78,NOT APPLICABLE,,ARM2,Y
S0088,8,hyponatremia,N,2,82,83,NOT APPLICABLE,,ARM2,Y
S0088,9,event,N,1,84,127,NOT APPLICABLE,,ARM2,Y
S0088,10,dysuria,N,1,89,127,NOT APPLICABLE,,ARM2,Y
S0089,1,thrombocytopenia,N,1,3,4,NOT APPLICABLE,,ARM4,Y
S0089,2,hemoglobin_normal_12_16_gm,N,1,12,13,NOT APPLICABLE,,ARM4,Y
S0089,3,dizziness,N,2,17,18,NOT APPLICABLE,,ARM4,Y
S0089,4,pain,N,2,18,19,NOT APPLICABLE,,ARM4,Y
S0089,5,hyperglycemia,N,2,35,36,NOT APPLICABLE,,ARM4,Y
S0089,6,palmar_plantar_erythrodysesthesia_syndrome,N,2,40,41,hold,DM035,ARM4,Y
S0089,7,diarrhea,N,1,45,46,NOT APPLICABLE,,ARM4,Y
S0089,8,creatinine_increased,N,1,71,72,NOT APPLICABLE,,ARM4,Y
S0089,9,hypertension_variable,N,2,72,73,NOT APPLICABLE,,ARM4,Y
S0089,10,dehydration,N,1,74,75,NOT APPLICABLE,,ARM4,Y
S0089,11,anemia,N,1,82,83,NOT APPLICABLE,,ARM4,Y
S0090,1,hypertension_variable,N,1,4,5,NOT APPLICABLE,,ARM3,Y
S0090,2,anemia,N,1,9,10,NOT APPLICABLE,,ARM3,Y
S0090,3,nausea,N,2,45,46,NOT APPLICABLE,,ARM3,Y
S0090,4,fever,Y,3,62,64,NOT APPLICABLE,,ARM3,Y
S0090,5,dysgeusia,N,1,63,64,NOT APPLICABLE,,ARM3,Y
S0090,6,vomiting,N,2,74,75,NOT APPLICABLE,,ARM3,Y
S0090,7,hyperkalemia,N,2,75,76,NOT APPLICABLE,,ARM3,Y
S0090,8,hematuria,N,2,90,127,NOT APPLICABLE,,ARM3,Y
S0090,9,pneumonia,Y,3,103,190,NOT APPLICABLE,,ARM3,Y
S0090,10,hiccough,N,2,112,127,NOT APPLICABLE,,ARM3,Y
S0091,1,fatigue,N,2,1,2,no_modification,DM004,ARM2,Y
S0091,2,coughing,N,2,2,3,no_modification,DM004,ARM2,Y
S0091,3,hypokalemia,N,2,3,4,no_modification,DM004,ARM2,Y
S0091,4,hyperglycemia,N,2,9,10,no_modification,DM004,ARM2,Y
S0091,5,dyspnea,N,1,10,11,no_modification,DM004,ARM2,Y
S0091,6,nasal_congestion_finding,N,2,17,18,NOT APPLICABLE,,ARM2,Y
S0091,7,event,N,2,18,19,NOT APPLICABLE,,ARM2,Y
S0091,8,dizziness,N,1,25,26,NOT APPLICABLE,,ARM2,Y
S0091,9,dysuria,N,2,26,27,NOT APPLICABLE,,ARM2,Y
S0091,10,hypoalbuminemia,N,2,28,29,NOT APPLICABLE,,ARM2,Y
S0091,11,decrease_in_appetite,N,2,30,31,NOT APPLICABLE,,ARM2,Y
S0091,12,anemia,N,2,37,38,NOT APPLICABLE,,ARM2,Y
S0091,13,hypertension_variable,N,1,39,40,NOT APPLICABLE,,ARM2,Y
S0092,1,hematuria,Y,3,3,5,NOT APPLICABLE,,ARM3,Y
S0092,2,alanine_aminotransferase_increased,N,2,7,8,hold,DM028,ARM3,Y
S0092,3,decreased_platelet_count,N,1,8,9,NOT APPLICABLE,,ARM3,Y
S0092,4,decrease_in_appetite,N,2,10,11,NOT APPLICABLE,,ARM3,Y
S0092,5,vomiting,N,2,11,12,NOT APPLICABLE,,ARM3,Y
S0092,6,fatigue,N,1,12,13,NOT APPLICABLE,,ARM3,Y
S0092,7,nausea,N,2,13,14,NOT APPLICABLE,,ARM3,Y
S0092,8,dyspnea,N,1,19,20,NOT APPLICABLE,,ARM3,Y
S0092,9,sleeplessness,N,1,21,22,NOT APPLICABLE,,ARM3,Y
S0092,10,sepsis,Y,3,27,29,NOT APPLICABLE,,ARM3,Y
S0092,11,increased_frequency_of_micturition,N,1,30,31,NOT APPLICABLE,,ARM3,Y
S0092,12,anemia,N,2,35,36,NOT APPLICABLE,,ARM3,Y
S0092,13,urinary_tract_infection,N,1,39,40,NOT APPLICABLE,,ARM3,Y
S0092,14,pneumonia,Y,3,48,50,NOT APPLICABLE,,ARM3,Y
S0092,15,hyperkalemia,N,2,57,58,NOT APPLICABLE,,ARM3,Y
S0092,16,hypertension_variable,N,1,63,64,NOT APPLICABLE,,ARM3,Y
S0092,17,alanine_aminotransferase_increased,Y,3,65,67,NOT APPLICABLE,,ARM3,Y
S0092,18,pruritus,N,2,69,70,NOT APPLICABLE,,ARM3,Y
S0092,19,anorexia,N,1,75,76,NOT APPLICABLE,,ARM3,Y
S0092,20,dysgeusia,N,2,76,77,NOT APPLICABLE,,ARM3,Y
S0092,21,dizziness,N,1,78,79,NOT APPLICABLE,,ARM3,Y
S0092,22,fever,Y,3,78,80,NOT APPLICABLE,,ARM3,Y
S0092,23,hematuria,N,2,79,80,NOT APPLICABLE,,ARM3,Y
S0092,24,decreased_platelet_count,Y,3,80,82,NOT APPLICABLE,,ARM3,Y
S0092,25,hypothyroidism,N,2,87,127,NOT APPLICABLE,,ARM3,Y
S0093,1,arthralgia,N,2,1,2,NOT APPLICABLE,,ARM4,Y
S0093,2,increased_frequency_of_micturition,N,2,3,4,NOT APPLICABLE,,ARM4,Y
S0093,3,decrease_in_appetite,N,1,8,9,NOT APPLICABLE,,ARM4,Y
S0093,4,hypocalcemia,N,2,18,19,NOT APPLICABLE,,ARM4,Y
S0093,5,hypertension_variable,N,2,23,24,NOT APPLICABLE,,ARM4,Y
S0093,6,dyspnea,N,2,37,38,NOT APPLICABLE,,ARM4,Y
S0093,7,pruritus,N,2,47,48,NOT APPLICABLE,,ARM4,Y
S0093,8,nasal_congestion_finding,N,2,64,65,NOT APPLICABLE,,ARM4,Y
S0093,9,hypomagnesemia,N,2,68,69,NOT APPLICABLE,,ARM4,Y
S0093,10,maculopapular_lesion,N,1,68,69,NOT APPLICABLE,,ARM4,Y
S0093,11,death_finding,Y,3,70,72,NOT APPLICABLE,,ARM4,Y
S0093,12,hypoalbuminemia,N,1,75,76,NOT APPLICABLE,,ARM4,Y
S0093,13,rash_erythematous_macules_or_papules,N,1,92,127,NOT APPLICABLE,,ARM4,Y
S0093,14,constipation,N,2,104,127,NOT APPLICABLE,,ARM4,Y
S0093,15,nausea,N,1,106,127,NOT APPLICABLE,,ARM4,Y
S0094,1,creatinine_increased,N,1,4,5,no_modification,DM004,ARM1,Y
S0094,2,diarrhea,N,2,10,11,hold;no_modification,DM004;DM026,ARM1,Y
S0094,3,dyspepsia,N,1,15,16,no_modification,DM004,ARM1,Y
S0094,4,"neoplasms_benign,_malignant_and_unspecified_(incl_cysts_and_polyps)_-_other,_specify",Y,3,18,20,NOT APPLICABLE,,ARM1,Y
S0094,5,hemoglobin_normal_12_16_gm,N,1,20,21,no_modification,DM004,ARM1,Y
S0094,6,chills,N,1,26,27,no_modification,DM004,ARM1,Y
S0094,7,dry_skin,N,2,31,32,no_modification,DM004,ARM1,Y
S0094,8,palmar_plantar_erythrodysesthesia_syndrome,N,1,38,39,hold;no_modification,DM004;DM035,ARM1,Y
S0094,9,dizziness,N,1,45,46,no_modification,DM004,ARM1,Y
S0094,10,pain,N,2,107,127,NOT APPLICABLE,,ARM1,Y
S0095,1,hypoalbuminemia,N,1,1,2,NOT APPLICABLE,,ARM4,Y
S0095,2,blood_creatinine_increased,N,1,1,2,NOT APPLICABLE,,ARM4,Y
S0095,3,decrease_in_appetite,N,1,9,10,NOT APPLICABLE,,ARM4,Y
S0095,4,increased_frequency_of_micturition,N,2,17,18,NOT APPLICABLE,,ARM4,Y
S0095,5,dysuria,N,2,19,20,NOT APPLICABLE,,ARM4,Y
S0095,6,hypertension_variable,N,2,22,23,NOT APPLICABLE,,ARM4,Y
S0095,7,dyspnea,N,1,35,36,NOT APPLICABLE,,ARM4,Y
S0095,8,hyponatremia,N,1,36,37,NOT APPLICABLE,,ARM4,Y
S0095,9,back_pain,N,1,38,39,NOT APPLICABLE,,ARM4,Y
S0095,10,constipation,N,2,42,43,NOT APPLICABLE,,ARM4,Y
S0095,11,event,N,1,50,51,NOT APPLICABLE,,ARM4,Y
S0095,12,other serious adverse events (not individually predicted),Y,3,64,66,NOT APPLICABLE,,ARM4,Y
S0095,13,nasal_congestion_finding,N,1,67,68,NOT APPLICABLE,,ARM4,Y
S0095,14,pruritus,N,1,86,127,NOT APPLICABLE,,ARM4,Y
S0095,15,anemia,N,1,89,127,NOT APPLICABLE,,ARM4,Y
S0096,1,anemia,N,1,9,10,no_modification,DM004,ARM2,Y
S0096,2,hypokalemia,N,2,41,42,no_modification,DM004,ARM2,Y
S0096,3,hypomagnesemia,N,1,49,50,no_modification,DM004,ARM2,Y
S0096,4,thrombocytopenia,N,2,49,50,no_modification,DM004,ARM2,Y
S0096,5,decreased_platelet_count,N,2,52,53,no_modification,DM004,ARM2,Y
S0096,6,hypothyroidism,N,1,61,62,no_modification,DM004,ARM2,Y
S0096,7,asthenia,N,1,77,78,NOT APPLICABLE,,ARM2,Y
S0096,8,nausea,N,2,84,127,NOT APPLICABLE,,ARM2,Y
S0096,9,abdominal_pain,N,2,93,127,NOT APPLICABLE,,ARM2,Y
S0097,1,anemia,N,2,8,9,no_modification,DM004,ARM2,Y
S0097,2,hypertension_variable,N,2,22,23,no_modification,DM004,ARM2,Y
S0097,3,alanine_aminotransferase_increased,N,1,52,53,no_modification,DM004,ARM2,Y
S0097,4,fatigue,N,1,61,62,no_modification,DM004,ARM2,Y
S0097,5,constipation,N,2,64,65,no_modification,DM004,ARM2,Y
S0097,6,hematuria,N,1,78,79,no_modification,DM004,ARM2,Y
S0097,7,nausea,N,1,82,83,no_modification,DM004,ARM2,Y
S0097,8,dyspnea,N,1,83,84,no_modification,DM004,ARM2,Y
S0097,9,decreased_platelet_count,N,2,85,127,NOT APPLICABLE,,ARM2,Y
S0097,10,anorexia,N,2,104,127,NOT APPLICABLE,,ARM2,Y
S0097,11,sepsis,Y,3,104,190,NOT APPLICABLE,,ARM2,Y
S0097,12,increased_frequency_of_micturition,N,1,109,127,NOT APPLICABLE,,ARM2,Y
S0097,13,decreased_platelet_count,Y,3,114,190,NOT APPLICABLE,,ARM2,Y
S0098,1,creatinine_increased,N,1,9,10,NOT APPLICABLE,,ARM3,Y
S0098,2,pain,N,2,12,13,NOT APPLICABLE,,ARM3,Y
S0098,3,anemia,N,2,32,33,NOT APPLICABLE,,ARM3,Y
S0098,4,depression_dominant,N,1,49,50,NOT APPLICABLE,,ARM3,Y
S0098,5,hypomagnesemia,N,1,52,53,NOT APPLICABLE,,ARM3,Y
S0098,6,hyperglycemia,N,2,52,53,NOT APPLICABLE,,ARM3,Y
S0098,7,dyspepsia,N,1,52,53,NOT APPLICABLE,,ARM3,Y
S0098,8,diarrhea,N,1,57,58,NOT APPLICABLE,,ARM3,Y
S0098,9,palmar_plantar_erythrodysesthesia_syndrome,N,1,58,59,hold,DM035,ARM3,Y
S0098,10,hemoglobin_normal_12_16_gm,N,2,77,78,NOT APPLICABLE,,ARM3,Y
S0099,1,vomiting,N,2,6,7,no_modification,DM004,ARM2,Y
S0099,2,constipation,N,1,9,10,no_modification,DM004,ARM2,Y
S0099,3,anorexia,N,1,24,25,no_modification,DM004,ARM2,Y
S0099,4,hemoglobin_normal_12_16_gm,N,2,28,29,no_modification,DM004,ARM2,Y
S0099,5,diarrhea,N,2,38,39,no_modification,DM004,ARM2,Y
S0099,6,alanine_aminotransferase_increased,N,2,54,55,no_modification,DM004,ARM2,Y
S0099,7,dyspepsia,N,2,62,63,no_modification,DM004,ARM2,Y
S0099,8,diarrhea,N,1,74,75,no_modification,DM004,ARM2,Y
S0099,9,anemia,N,1,74,75,no_modification,DM004,ARM2,Y
S0099,10,hematuria,N,2,75,76,no_modification,DM004,ARM2,Y
S0099,11,creatinine_increased,N,1,95,127,NOT APPLICABLE,,ARM2,Y
S0099,12,palmar_plantar_erythrodysesthesia_syndrome,N,1,100,127,NOT APPLICABLE,,ARM2,Y
S0099,13,thrombocytopenia,N,1,100,127,NOT APPLICABLE,,ARM2,Y
S0099,14,creatinine,N,1,102,127,NOT APPLICABLE,,ARM2,Y
S0100,1,anemia,N,2,3,4,no_modification,DM004,ARM1,Y
S0100,2,alkaline_phosphatase_raised,N,1,3,4,no_modification,DM004,ARM1,Y
S0100,3,aspartate_aminotransferase_increased,N,1,3,4,no_modification,DM004,ARM1,Y
S0100,4,constipation,N,1,7,8,no_modification,DM004,ARM1,Y
S0100,5,diarrhea,N,1,13,14,no_modification,DM004,ARM1,Y
S0100,6,palmar_plantar_erythrodysesthesia_syndrome,N,2,18,19,hold;no_modification,DM004;DM035,ARM1,Y
S0100,7,dysgeusia,N,1,40,41,no_modification,DM004,ARM1,Y
S0100,8,thrombocytopenia,N,2,45,46,no_modification,DM004,ARM1,Y
S0100,9,pain,N,2,49,50,no_modification,DM004,ARM1,Y
S0100,10,diarrhea,N,1,69,70,no_modification,DM004,ARM1,Y
S0100,11,dizziness,N,1,76,77,no_modification,DM004,ARM1,Y
S0101,1,pruritus,N,1,1,2,no_modification,DM004,ARM2,Y
S0101,2,anemia,N,1,3,4,no_modification,DM004,ARM2,Y
S0101,3,headache,N,2,8,9,no_modification,DM004,ARM2,Y
S0101,4,hematuria,N,2,11,12,no_modification,DM004,ARM2,Y
S0101,5,fever,Y,3,11,13,NOT APPLICABLE,,ARM2,Y
S0101,6,proteinuria,N,1,14,15,no_modification,DM004,ARM2,Y
S0101,7,hyponatremia,N,2,15,16,no_modification,DM004,ARM2,Y
S0101,8,hematuria,Y,3,17,19,NOT APPLICABLE,,ARM2,Y
S0101,9,hypoalbuminemia,N,1,22,23,no_modification,DM004,ARM2,Y
S0101,10,acute_kidney_injury,Y,3,24,26,NOT APPLICABLE,,ARM2,Y
S0101,11,back_pain,N,1,25,26,no_modification,DM004,ARM2,Y
S0101,12,paresthesia,N,1,25,26,no_modification,DM004,ARM2,Y
S0101,13,dysgeusia,N,2,27,28,no_modification,DM004,ARM2,Y
S0101,14,hypertension_variable,N,2,28,29,no_modification,DM004,ARM2,Y
S0101,15,hyperkalemia,N,2,30,31,no_modification,DM004,ARM2,Y
S0101,16,abdominal_pain,N,1,40,41,no_modification,DM004,ARM2,Y
S0101,17,asthenia,N,1,41,42,no_modification,DM004,ARM2,Y
S0101,18,hypothyroidism,N,2,44,45,no_modification,DM004,ARM2,Y
S0101,19,fatigue,N,1,46,47,no_modification,DM004,ARM2,Y
S0101,20,blood_creatinine_increased,N,2,51,52,no_modification,DM004,ARM2,Y
S0101,21,sleeplessness,N,1,55,56,no_modification,DM004,ARM2,Y
S0101,22,decreased_platelet_count,Y,3,56,58,NOT APPLICABLE,,ARM2,Y
S0101,23,dyspnea,N,2,58,59,no_modification,DM004,ARM2,Y
S0101,24,pneumonia,Y,3,60,62,NOT APPLICABLE,,ARM2,Y
S0101,25,hiccough,N,2,63,64,no_modification,DM004,ARM2,Y
S0101,26,increased_frequency_of_micturition,N,1,68,69,NOT APPLICABLE,,ARM2,Y
S0101,27,sepsis,Y,3,68,70,NOT APPLICABLE,,ARM2,Y
S0101,28,fever,N,2,69,70,NOT APPLICABLE,,ARM2,Y
S0101,29,urinary_tract_infection,N,2,69,70,NOT APPLICABLE,,ARM2,Y
S0101,30,aspartate_aminotransferase_increased,N,1,70,71,NOT APPLICABLE,,ARM2,Y
S0101,31,dizziness,N,1,70,71,NOT APPLICABLE,,ARM2,Y
S0101,32,peripheral_edema,N,1,72,73,NOT APPLICABLE,,ARM2,Y
S0101,33,decrease_in_appetite,N,1,74,75,NOT APPLICABLE,,ARM2,Y
S0101,34,constipation,N,1,76,77,NOT APPLICABLE,,ARM2,Y
S0101,35,coughing,N,1,78,79,NOT APPLICABLE,,ARM2,Y
S0101,36,decreased_platelet_count,N,2,80,81,NOT APPLICABLE,,ARM2,Y
S0101,37,nausea,N,2,87,127,NOT APPLICABLE,,ARM2,Y
S0101,38,hypomagnesemia,N,2,87,127,NOT APPLICABLE,,ARM2,Y
S0101,39,rash_erythematous_macules_or_papules,N,1,87,127,NOT APPLICABLE,,ARM2,Y
S0101,40,vomiting,N,2,89,127,NOT APPLICABLE,,ARM2,Y
S0101,41,alanine_aminotransferase_increased,N,2,93,127,NOT APPLICABLE,,ARM2,Y
S0101,42,anorexia,N,2,93,127,NOT APPLICABLE,,ARM2,Y
S0102,1,decrease_in_appetite,N,1,3,4,NOT APPLICABLE,,ARM4,Y
S0102,2,vomiting,N,1,9,10,NOT APPLICABLE,,ARM4,Y
S0102,3,other serious adverse events (not individually predicted),Y,3,11,13,NOT APPLICABLE,,ARM4,Y
S0102,4,anorexia,N,1,28,29,NOT APPLICABLE,,ARM4,Y
S0102,5,nasal_congestion_finding,N,2,40,41,NOT APPLICABLE,,ARM4,Y
S0102,6,event,N,1,41,42,NOT APPLICABLE,,ARM4,Y
S0102,7,dysgeusia,N,2,43,44,NOT APPLICABLE,,ARM4,Y
S0102,8,dehydration,N,2,60,61,NOT APPLICABLE,,ARM4,Y
S0102,9,dysuria,N,2,68,69,NOT APPLICABLE,,ARM4,Y
S0102,10,hypoalbuminemia,N,1,79,80,NOT APPLICABLE,,ARM4,Y
S0102,11,hypomagnesemia,N,1,91,127,NOT APPLICABLE,,ARM4,Y
S0103,1,decrease_in_appetite,N,1,21,22,NOT APPLICABLE,,ARM4,Y
S0103,2,fever,N,2,28,29,NOT APPLICABLE,,ARM4,Y
S0103,3,nausea,N,2,59,60,NOT APPLICABLE,,ARM4,Y
S0103,4,hematuria,N,2,81,82,NOT APPLICABLE,,ARM4,Y
S0103,5,hyperkalemia,N,2,86,127,NOT APPLICABLE,,ARM4,Y
S0104,1,diarrhea,N,2,25,26,hold,DM026,ARM4,Y
S0104,2,"neoplasms_benign,_malignant_and_unspecified_(incl_cysts_and_polyps)_-_other,_specify",Y,3,26,28,NOT APPLICABLE,,ARM4,Y
S0104,3,anemia,Y,3,33,35,NOT APPLICABLE,,ARM4,Y
S0104,4,constipation,N,2,38,39,NOT APPLICABLE,,ARM4,Y
S0104,5,thrombocytopenia,N,2,50,51,NOT APPLICABLE,,ARM4,Y
S0104,6,maculopapular_lesion,N,2,60,61,NOT APPLICABLE,,ARM4,Y
S0104,7,palmar_plantar_erythrodysesthesia_syndrome,N,1,69,70,hold,DM035,ARM4,Y
S0104,8,nausea,N,2,70,71,NOT APPLICABLE,,ARM4,Y
S0104,9,pain,N,2,81,82,NOT APPLICABLE,,ARM4,Y
S0104,10,anemia,N,2,90,127,NOT APPLICABLE,,ARM4,Y
S0104,11,dizziness,N,2,100,127,NOT APPLICABLE,,ARM4,Y
S0105,1,arthralgia,N,1,13,14,no_modification,DM004,ARM1,Y
S0105,2,neutrophil_count_decreased,N,1,15,16,no_modification,DM004,ARM1,Y
S0105,3,anemia,N,1,19,20,no_modification,DM004,ARM1,Y
S0105,4,abdominal_pain,N,1,22,23,no_modification,DM004,ARM1,Y
S0105,5,coughing,N,1,57,58,no_modification,DM004,ARM1,Y
S0105,6,decreased_platelet_count,N,2,67,68,no_modification,DM004,ARM1,Y
S0105,7,nausea,N,2,74,75,no_modification,DM004,ARM1,Y
S0105,8,fever,N,1,109,127,NOT APPLICABLE,,ARM1,Y
S0106,1,dysuria,N,1,3,4,no_modification,DM004,ARM1,Y
S0106,2,urinary_tract_infection,N,1,9,10,no_modification,DM004,ARM1,Y
S0106,3,blood_creatinine_increased,N,1,25,26,no_modification,DM004,ARM1,Y
S0106,4,nasal_congestion_finding,N,1,34,35,no_modification,DM004,ARM1,Y
S0106,5,dyspepsia,N,2,38,39,no_modification,DM004,ARM1,Y
S0106,6,hypertension_variable,N,2,39,40,no_modification,DM004,ARM1,Y
S0106,7,coughing,N,2,46,47,no_modification,DM004,ARM1,Y
S0106,8,vomiting,N,2,47,48,no_modification,DM004,ARM1,Y
S0106,9,alanine_aminotransferase_increased,N,1,56,57,no_modification,DM004,ARM1,Y
S0106,10,dysgeusia,N,1,64,65,no_modification,DM004,ARM1,Y
S0106,11,hypomagnesemia,N,2,66,67,NOT APPLICABLE,,ARM1,Y
S0106,12,rash_erythematous_macules_or_papules,N,2,66,67,NOT APPLICABLE,,ARM1,Y
S0106,13,dyspnea,N,2,76,77,NOT APPLICABLE,,ARM1,Y
S0106,14,decrease_in_appetite,N,1,76,77,NOT APPLICABLE,,ARM1,Y
S0106,15,hypocalcemia,N,1,76,77,NOT APPLICABLE,,ARM1,Y
S0106,16,hypoalbuminemia,N,1,85,127,NOT APPLICABLE,,ARM1,Y
S0107,1,hypoalbuminemia,N,2,25,26,NOT APPLICABLE,,ARM3,Y
S0107,2,anemia,N,2,35,36,NOT APPLICABLE,,ARM3,Y
S0107,3,urinary_tract_infection,N,1,51,52,NOT APPLICABLE,,ARM3,Y
S0107,4,hypertension_variable,N,1,78,79,NOT APPLICABLE,,ARM3,Y
S0107,5,increased_frequency_of_micturition,N,2,89,127,NOT APPLICABLE,,ARM3,Y
S0108,1,anemia,N,2,38,39,no_modification,DM004,ARM2,Y
S0108,2,constipation,N,1,40,41,no_modification,DM004,ARM2,Y
S0108,3,dizziness,N,2,88,127,NOT APPLICABLE,,ARM2,Y
S0108,4,asthenia,N,1,109,127,NOT APPLICABLE,,ARM2,Y
S0108,5,fever,N,1,114,127,NOT APPLICABLE,,ARM2,Y
S0109,1,leukopenia,N,2,13,14,no_modification,DM004,ARM1,Y
S0109,2,decreased_platelet_count,N,1,17,18,no_modification,DM004,ARM1,Y
S0109,3,vomiting,N,2,29,30,no_modification,DM004,ARM1,Y
S0109,4,headache,N,1,33,34,no_modification,DM004,ARM1,Y
S0109,5,hypothyroidism,N,2,56,57,no_modification,DM004;DM034,ARM1,Y
S0109,6,anemia,N,2,58,59,no_modification,DM004,ARM1,Y
S0109,7,coughing,N,1,66,67,no_modification,DM004,ARM1,Y
S0109,8,aspartate_aminotransferase_increased,N,2,96,127,NOT APPLICABLE,,ARM1,Y
S0109,9,nausea,N,2,104,127,NOT APPLICABLE,,ARM1,Y
S0109,10,pneumonia,Y,3,110,190,NOT APPLICABLE,,ARM1,Y
S0110,1,anorexia,N,2,17,18,NOT APPLICABLE,,ARM4,Y
S0110,2,creatinine_increased,N,1,33,34,NOT APPLICABLE,,ARM4,Y
S0110,3,hypertension_variable,N,1,34,35,NOT APPLICABLE,,ARM4,Y
S0110,4,dysuria,N,1,42,43,NOT APPLICABLE,,ARM4,Y
S0110,5,hypocalcemia,N,1,43,44,NOT APPLICABLE,,ARM4,Y
S0110,6,other serious adverse events (not individually predicted),Y,3,43,45,NOT APPLICABLE,,ARM4,Y
S0110,7,blood_creatinine_increased,N,2,45,46,NOT APPLICABLE,,ARM4,Y
S0110,8,nasal_congestion_finding,N,1,55,56,NOT APPLICABLE,,ARM4,Y
S0110,9,dyspnea,N,2,56,57,NOT APPLICABLE,,ARM4,Y
S0110,10,decrease_in_appetite,N,2,56,57,NOT APPLICABLE,,ARM4,Y
S0110,11,hyperphosphatemia,N,2,59,60,NOT APPLICABLE,,ARM4,Y
S0110,12,hypoalbuminemia,N,1,67,68,NOT APPLICABLE,,ARM4,Y
S0110,13,hyperkalemia,N,2,78,79,NOT APPLICABLE,,ARM4,Y
S0112,1,constipation,N,1,15,16,no_modification,DM004,ARM1,Y
S0112,2,hyperglycemia,N,2,60,61,no_modification,DM004,ARM1,Y
S0112,3,headache,N,2,77,78,no_modification,DM004,ARM1,Y
S0112,4,anemia,N,2,86,127,NOT APPLICABLE,,ARM1,Y
S0112,5,aspartate_aminotransferase_increased,N,1,97,127,NOT APPLICABLE,,ARM1,Y
S0113,1,pruritus,N,1,6,7,NOT APPLICABLE,,ARM3,Y
S0113,2,anemia,N,2,10,11,NOT APPLICABLE,,ARM3,Y
S0113,3,hematuria,N,2,29,30,NOT APPLICABLE,,ARM3,Y
S0113,4,blood_creatinine_increased,N,2,29,30,NOT APPLICABLE,,ARM3,Y
S0113,5,decrease_in_appetite,N,2,65,66,NOT APPLICABLE,,ARM3,Y
S0113,6,nausea,N,1,76,77,NOT APPLICABLE,,ARM3,Y
S0113,7,increased_frequency_of_micturition,N,2,79,80,NOT APPLICABLE,,ARM3,Y
S0114,1,nausea,N,1,15,16,no_modification,DM004,ARM1,Y
S0114,2,chills,N,2,41,42,no_modification,DM004,ARM1,Y
S0114,3,thrombocytopenia,N,2,43,44,no_modification,DM004,ARM1,Y
S0114,4,pain,N,1,46,47,no_modification,DM004,ARM1,Y
S0114,5,diarrhea,N,1,57,58,no_modification,DM004,ARM1,Y
S0114,6,palmar_plantar_erythrodysesthesia_syndrome,N,2,61,62,hold;no_modification,DM004;DM035,ARM1,Y
S0114,7,neuropathy:_sensory,N,2,62,63,no_modification,DM004,ARM1,Y
S0114,8,hemoglobin_normal_12_16_gm,N,2,66,67,no_modification,DM004,ARM1,Y
S0114,9,anemia,N,2,89,127,NOT APPLICABLE,,ARM1,Y
S0114,10,hypomagnesemia,N,1,114,127,NOT APPLICABLE,,ARM1,Y
S0115,1,creatinine_increased,N,1,6,7,no_modification,DM004,ARM2,Y
S0115,2,thrombocytopenia,N,1,6,7,no_modification,DM004,ARM2,Y
S0115,3,anemia,N,2,25,26,no_modification,DM004,ARM2,Y
S0115,4,hemoglobin_normal_12_16_gm,N,1,26,27,no_modification,DM004,ARM2,Y
S0115,5,constipation,N,1,34,35,no_modification,DM004,ARM2,Y
S0115,6,hypertension_variable,N,1,38,39,no_modification,DM004,ARM2,Y
S0115,7,pain,N,2,48,49,no_modification,DM004,ARM2,Y
S0115,8,dry_skin,N,1,55,56,no_modification,DM004,ARM2,Y
S0115,9,arthralgia,N,1,59,60,no_modification,DM004,ARM2,Y
S0115,10,headache,N,2,65,66,NOT APPLICABLE,,ARM2,Y
S0115,11,back_pain,N,2,66,67,NOT APPLICABLE,,ARM2,Y
S0115,12,palmar_plantar_erythrodysesthesia_syndrome,N,2,75,76,NOT APPLICABLE,,ARM2,Y
S0116,1,decreased_platelet_count,N,2,3,4,NOT APPLICABLE,,ARM4,Y
S0116,2,fever,N,2,4,5,NOT APPLICABLE,,ARM4,Y
S0116,3,hypertension_variable,N,2,4,5,NOT APPLICABLE,,ARM4,Y
S0116,4,hypothyroidism,N,2,5,6,no_modification,DM034,ARM4,Y
S0116,5,hypoalbuminemia,N,1,7,8,NOT APPLICABLE,,ARM4,Y
S0116,6,coughing,N,1,8,9,NOT APPLICABLE,,ARM4,Y
S0116,7,dizziness,N,1,16,17,NOT APPLICABLE,,ARM4,Y
S0116,8,hypokalemia,N,1,16,17,NOT APPLICABLE,,ARM4,Y
S0116,9,increased_frequency_of_micturition,N,2,16,17,NOT APPLICABLE,,ARM4,Y
S0116,10,nausea,N,1,21,22,NOT APPLICABLE,,ARM4,Y
S0116,11,anemia,N,2,23,24,NOT APPLICABLE,,ARM4,Y
S0116,12,abdominal_pain,N,1,24,25,NOT APPLICABLE,,ARM4,Y
S0116,13,anorexia,N,1,26,27,NOT APPLICABLE,,ARM4,Y
S0116,14,decreased_platelet_count,Y,3,26,28,NOT APPLICABLE,,ARM4,Y
S0116,15,hyponatremia,N,1,31,32,NOT APPLICABLE,,ARM4,Y
S0116,16,decrease_in_appetite,N,1,36,37,NOT APPLICABLE,,ARM4,Y
S0116,17,thrombocytopenia,N,1,57,58,NOT APPLICABLE,,ARM4,Y
S0116,18,hyperkalemia,N,1,57,58,NOT APPLICABLE,,ARM4,Y
S0116,19,hiccough,N,1,57,58,NOT APPLICABLE,,ARM4,Y
S0116,20,sepsis,Y,3,57,59,NOT APPLICABLE,,ARM4,Y
S0116,21,hematuria,N,2,62,63,NOT APPLICABLE,,ARM4,Y
S0116,22,peripheral_edema,N,1,67,68,NOT APPLICABLE,,ARM4,Y
S0116,23,urinary_tract_infection,N,2,82,83,NOT APPLICABLE,,ARM4,Y
S0116,24,alanine_aminotransferase_increased,Y,3,87,190,NOT APPLICABLE,,ARM4,Y
S0116,25,aspartate_aminotransferase_increased,N,1,89,127,NOT APPLICABLE,,ARM4,Y
S0116,26,dysgeusia,N,1,91,127,NOT APPLICABLE,,ARM4,Y
S0116,27,vomiting,N,1,98,127,NOT APPLICABLE,,ARM4,Y
S0116,28,alanine_aminotransferase_increased,N,2,101,127,NOT APPLICABLE,,ARM4,Y
S0116,29,sleeplessness,N,1,103,127,NOT APPLICABLE,,ARM4,Y
S0116,30,fatigue,N,2,105,127,NOT APPLICABLE,,ARM4,Y
S0116,31,back_pain,N,1,108,127,NOT APPLICABLE,,ARM4,Y
S0116,32,paresthesia,N,1,110,127,NOT APPLICABLE,,ARM4,Y
S0116,33,weight_loss,N,1,111,127,NOT APPLICABLE,,ARM4,Y
S0117,1,anemia,N,2,4,5,NOT APPLICABLE,,ARM4,Y
S0117,2,coughing,N,1,8,9,NOT APPLICABLE,,ARM4,Y
S0117,3,nausea,N,1,19,20,NOT APPLICABLE,,ARM4,Y
S0117,4,abdominal_pain,N,2,25,26,NOT APPLICABLE,,ARM4,Y
S0117,5,thrombocytopenia,N,1,28,29,NOT APPLICABLE,,ARM4,Y
S0117,6,pain_in_limb,N,1,37,38,NOT APPLICABLE,,ARM4,Y
S0117,7,constipation,N,2,41,42,NOT APPLICABLE,,ARM4,Y
S0117,8,arthralgia,N,1,41,42,NOT APPLICABLE,,ARM4,Y
S0118,1,dyspnea,N,2,11,12,NOT APPLICABLE,,ARM4,Y
S0118,2,decrease_in_appetite,N,2,18,19,NOT APPLICABLE,,ARM4,Y
S0118,3,hypocalcemia,N,1,18,19,NOT APPLICABLE,,ARM4,Y
S0118,4,dehydration,N,1,20,21,NOT APPLICABLE,,ARM4,Y
S0118,5,rash_erythematous_macules_or_papules,N,2,21,22,NOT APPLICABLE,,ARM4,Y
S0118,6,dysuria,N,1,28,29,NOT APPLICABLE,,ARM4,Y
S0118,7,abdominal_pain,N,1,31,32,NOT APPLICABLE,,ARM4,Y
S0118,8,hyperglycemia,N,1,41,42,NOT APPLICABLE,,ARM4,Y
S0118,9,hypertension_variable,N,1,54,55,NOT APPLICABLE,,ARM4,Y
S0118,10,pruritus,N,2,56,57,NOT APPLICABLE,,ARM4,Y
S0118,11,other serious adverse events (not individually predicted),Y,3,62,64,NOT APPLICABLE,,ARM4,Y
S0118,12,hyperphosphatemia,N,1,63,64,NOT APPLICABLE,,ARM4,Y
S0118,13,hypoalbuminemia,N,2,70,71,NOT APPLICABLE,,ARM4,Y
S0118,14,event,N,1,71,72,NOT APPLICABLE,,ARM4,Y
S0118,15,arthralgia,N,2,85,127,NOT APPLICABLE,,ARM4,Y
S0119,1,decreased_platelet_count,N,1,25,26,no_modification,DM004,ARM1,Y
S0119,2,fever,N,1,25,26,no_modification,DM004,ARM1,Y
S0119,3,other serious adverse events (not individually predicted),Y,3,48,50,NOT APPLICABLE,,ARM1,Y
S0119,4,hypothyroidism,N,1,68,69,no_modification,DM004,ARM1,Y
S0119,5,hypomagnesemia,N,1,81,82,no_modification,DM004,ARM1,Y
S0119,6,abdominal_pain,N,1,95,127,NOT APPLICABLE,,ARM1,Y
S0119,7,nausea,N,2,108,127,NOT APPLICABLE,,ARM1,Y
S0119,8,rash_erythematous_macules_or_papules,N,1,108,127,NOT APPLICABLE,,ARM1,Y
S0120,1,creatinine,N,1,1,2,NOT APPLICABLE,,ARM3,Y
S0120,2,chills,N,1,11,12,NOT APPLICABLE,,ARM3,Y
S0120,3,nausea,N,1,24,25,NOT APPLICABLE,,ARM3,Y
S0120,4,thrombocytopenia,N,2,36,37,NOT APPLICABLE,,ARM3,Y
S0120,5,pain,N,1,45,46,NOT APPLICABLE,,ARM3,Y
S0120,6,coughing,N,2,49,50,NOT APPLICABLE,,ARM3,Y
S0120,7,anemia,N,1,56,57,NOT APPLICABLE,,ARM3,Y
S0120,8,palmar_plantar_erythrodysesthesia_syndrome,N,1,58,59,hold,DM035,ARM3,Y
S0120,9,dyspepsia,N,2,61,62,NOT APPLICABLE,,ARM3,Y
S0120,10,constipation,N,2,62,63,NOT APPLICABLE,,ARM3,Y
S0120,11,hematuria,N,1,83,84,NOT APPLICABLE,,ARM3,Y
S0120,12,dry_skin,N,1,89,127,NOT APPLICABLE,,ARM3,Y
S0120,13,diarrhea,N,1,90,127,NOT APPLICABLE,,ARM3,Y
S0121,1,anemia,N,1,15,16,no_modification,DM004,ARM1,Y
S0121,2,decreased_platelet_count,N,1,21,22,no_modification,DM004,ARM1,Y
S0121,3,other serious adverse events (not individually predicted),Y,3,58,60,NOT APPLICABLE,,ARM1,Y
S0121,4,abdominal_pain,N,1,78,79,NOT APPLICABLE,,ARM1,Y
S0121,5,neutrophil_count_decreased,N,1,84,127,NOT APPLICABLE,,ARM1,Y
S0121,6,coughing,N,1,84,127,NOT APPLICABLE,,ARM1,Y
S0122,1,nausea,N,1,3,4,NOT APPLICABLE,,ARM3,Y
S0122,2,anemia,N,1,101,127,NOT APPLICABLE,,ARM3,Y
S0123,1,constipation,N,2,18,19,no_modification,DM004,ARM2,Y
S0123,2,decrease_in_appetite,N,2,22,23,no_modification,DM004,ARM2,Y
S0123,3,abdominal_pain,N,1,31,32,no_modification,DM004,ARM2,Y
S0123,4,event,N,1,33,34,no_modification,DM004,ARM2,Y
S0123,5,dyspnea,N,2,40,41,no_modification,DM004,ARM2,Y
S0123,6,pain,N,1,40,41,no_modification,DM004,ARM2,Y
S0123,7,pruritus,N,2,46,47,no_modification,DM004,ARM2,Y
S0123,8,hypoalbuminemia,N,2,48,49,no_modification,DM004,ARM2,Y
S0123,9,pain_in_limb,N,2,50,51,no_modification,DM004,ARM2,Y
S0123,10,acute_kidney_injury,Y,3,51,53,NOT APPLICABLE,,ARM2,Y
S0123,11,hypomagnesemia,N,1,60,61,no_modification,DM004,ARM2,Y
S0123,12,dysgeusia,N,1,61,62,no_modification,DM004,ARM2,Y
S0123,13,sensory_neuropathy,N,1,62,63,no_modification,DM004,ARM2,Y
S0123,14,nasal_congestion_finding,N,2,66,67,NOT APPLICABLE,,ARM2,Y
S0123,15,coughing,N,2,82,83,NOT APPLICABLE,,ARM2,Y
S0124,1,anemia,N,1,10,11,no_modification,DM004,ARM1,Y
S0124,2,palmar_plantar_erythrodysesthesia_syndrome,N,2,21,22,hold;no_modification,DM004;DM035,ARM1,Y
S0124,3,dry_skin,N,1,21,22,no_modification,DM004,ARM1,Y
S0124,4,dizziness,N,1,22,23,no_modification,DM004,ARM1,Y
S0124,5,headache,N,2,24,25,no_modification,DM004,ARM1,Y
S0124,6,pain,N,2,63,64,no_modification,DM004,ARM1,Y
S0124,7,chills,N,1,89,127,NOT APPLICABLE,,ARM1,Y
S0124,8,neuropathy:_sensory,N,2,100,127,NOT APPLICABLE,,ARM1,Y
S0124,9,hypertension_variable,N,1,103,127,NOT APPLICABLE,,ARM1,Y
S0124,10,constipation,N,1,111,127,NOT APPLICABLE,,ARM1,Y
S0125,1,alanine_aminotransferase_increased,N,1,26,27,no_modification,DM004,ARM1,Y
S0125,2,anemia,N,1,34,35,no_modification,DM004,ARM1,Y
S0125,3,diarrhea,N,2,37,38,hold;no_modification,DM004;DM026,ARM1,Y
S0125,4,hemoglobin_normal_12_16_gm,N,1,38,39,no_modification,DM004,ARM1,Y
S0125,5,constipation,N,1,39,40,no_modification,DM004,ARM1,Y
S0125,6,pain,N,2,53,54,no_modification,DM004,ARM1,Y
S0125,7,hematuria,N,1,64,65,no_modification,DM004,ARM1,Y
S0125,8,palmar_plantar_erythrodysesthesia_syndrome,N,2,75,76,hold;no_modification,DM004;DM035,ARM1,Y
S0125,9,thrombocytopenia,N,2,91,127,NOT APPLICABLE,,ARM1,Y
S0126,1,decreased_platelet_count,N,1,2,3,no_modification,DM004,ARM1,Y
S0126,2,sleeplessness,N,2,10,11,no_modification,DM004,ARM1,Y
S0126,3,anorexia,N,1,11,12,no_modification,DM004,ARM1,Y
S0126,4,nausea,N,1,12,13,no_modification,DM004,ARM1,Y
S0126,5,vomiting,N,1,12,13,no_modification,DM004,ARM1,Y
S0126,6,alanine_aminotransferase_increased,N,2,17,18,hold;no_modification,DM004;DM028,ARM1,Y
S0126,7,hematuria,N,1,21,22,no_modification,DM004,ARM1,Y
S0126,8,hiccough,N,2,26,27,no_modification,DM004,ARM1,Y
S0126,9,dysgeusia,N,2,29,30,no_modification,DM004,ARM1,Y
S0126,10,fever,N,2,41,42,no_modification,DM004,ARM1,Y
S0126,11,hypertension_variable,N,2,52,53,no_modification,DM004,ARM1,Y
S0126,12,weight_loss,N,2,62,63,no_modification,DM004,ARM1,Y
S0126,13,acute_kidney_injury,Y,3,62,64,NOT APPLICABLE,,ARM1,Y
S0126,14,dyspnea,N,2,69,70,NOT APPLICABLE,,ARM1,Y
S0126,15,fever,Y,3,70,72,NOT APPLICABLE,,ARM1,Y
S0126,16,sepsis,Y,3,79,81,NOT APPLICABLE,,ARM1,Y
S0126,17,proteinuria,N,2,82,83,NOT APPLICABLE,,ARM1,Y
S0126,18,decrease_in_appetite,N,1,83,84,NOT APPLICABLE,,ARM1,Y
S0126,19,dizziness,N,2,87,127,NOT APPLICABLE,,ARM1,Y
S0126,20,anemia,N,1,90,127,NOT APPLICABLE,,ARM1,Y
S0126,21,back_pain,N,2,92,127,NOT APPLICABLE,,ARM1,Y
S0127,1,anorexia,N,1,22,23,NOT APPLICABLE,,ARM3,Y
S0127,2,anemia,N,1,70,71,NOT APPLICABLE,,ARM3,Y
S0128,1,coughing,N,1,7,8,NOT APPLICABLE,,ARM4,Y
S0128,2,anemia,N,2,32,33,NOT APPLICABLE,,ARM4,Y
S0128,3,rash_erythematous_macules_or_papules,N,2,46,47,NOT APPLICABLE,,ARM4,Y
S0128,4,decreased_platelet_count,N,2,59,60,NOT APPLICABLE,,ARM4,Y
S0128,5,dizziness,N,2,63,64,NOT APPLICABLE,,ARM4,Y
S0128,6,vomiting,N,1,84,127,NOT APPLICABLE,,ARM4,Y
S0128,7,nausea,N,2,99,127,NOT APPLICABLE,,ARM4,Y
S0128,8,asthenia,N,1,104,127,NOT APPLICABLE,,ARM4,Y
S0129,1,fever,N,1,5,6,no_modification,DM004,ARM2,Y
S0129,2,sleeplessness,N,1,17,18,no_modification,DM004,ARM2,Y
S0129,3,creatinine_increased,N,1,30,31,no_modification,DM004,ARM2,Y
S0129,4,decrease_in_appetite,N,1,38,39,no_modification,DM004,ARM2,Y
S0129,5,pain_in_limb,N,2,44,45,no_modification,DM004,ARM2,Y
S0129,6,dysuria,N,2,45,46,no_modification,DM004,ARM2,Y
S0129,7,blood_creatinine_increased,N,2,55,56,no_modification,DM004,ARM2,Y
S0129,8,hypertension_variable,N,2,56,57,no_modification,DM004,ARM2,Y
S0129,9,dyspnea,N,2,61,62,no_modification,DM004,ARM2,Y
S0129,10,hypocalcemia,N,1,70,71,no_modification,DM004,ARM2,Y
S0129,11,other serious adverse events (not individually predicted),Y,3,70,72,NOT APPLICABLE,,ARM2,Y
S0129,12,arthralgia,N,2,86,127,NOT APPLICABLE,,ARM2,Y
S0129,13,hyperphosphatemia,N,1,96,127,NOT APPLICABLE,,ARM2,Y
S0129,14,hypoalbuminemia,N,1,98,127,NOT APPLICABLE,,ARM2,Y
S0129,15,nasal_congestion_finding,N,1,105,127,NOT APPLICABLE,,ARM2,Y
S0129,16,back_pain,N,2,106,127,NOT APPLICABLE,,ARM2,Y
S0130,1,coughing,N,1,2,3,NOT APPLICABLE,,ARM4,Y
S0130,2,nausea,N,2,8,9,NOT APPLICABLE,,ARM4,Y
S0130,3,hypoalbuminemia,N,1,8,9,NOT APPLICABLE,,ARM4,Y
S0130,4,hypertension_variable,N,1,17,18,NOT APPLICABLE,,ARM4,Y
S0130,5,decreased_platelet_count,Y,3,17,19,NOT APPLICABLE,,ARM4,Y
S0130,6,hematuria,N,1,25,26,NOT APPLICABLE,,ARM4,Y
S0130,7,weight_loss,N,1,28,29,NOT APPLICABLE,,ARM4,Y
S0130,8,hyperkalemia,N,1,31,32,NOT APPLICABLE,,ARM4,Y
S0130,9,alanine_aminotransferase_increased,N,2,32,33,hold,DM028,ARM4,Y
S0130,10,acute_kidney_injury,Y,3,32,34,NOT APPLICABLE,,ARM4,Y
S0130,11,fever,N,2,33,34,NOT APPLICABLE,,ARM4,Y
S0130,12,urinary_tract_infection,N,2,38,39,NOT APPLICABLE,,ARM4,Y
S0130,13,decrease_in_appetite,N,2,45,46,NOT APPLICABLE,,ARM4,Y
S0130,14,dysgeusia,N,1,55,56,NOT APPLICABLE,,ARM4,Y
S0130,15,anemia,N,1,59,60,NOT APPLICABLE,,ARM4,Y
S0130,16,dyspnea,N,1,61,62,NOT APPLICABLE,,ARM4,Y
S0130,17,pruritus,N,1,73,74,NOT APPLICABLE,,ARM4,Y
S0130,18,hypokalemia,N,2,82,83,NOT APPLICABLE,,ARM4,Y
S0130,19,pneumonia,Y,3,89,190,NOT APPLICABLE,,ARM4,Y
S0130,20,hiccough,N,2,103,127,NOT APPLICABLE,,ARM4,Y
S0130,21,anorexia,N,2,113,127,NOT APPLICABLE,,ARM4,Y
S0131,1,dysgeusia,N,2,9,10,NOT APPLICABLE,,ARM4,Y
S0131,2,fever,N,2,11,12,NOT APPLICABLE,,ARM4,Y
S0131,3,decrease_in_appetite,N,2,20,21,NOT APPLICABLE,,ARM4,Y
S0131,4,hypomagnesemia,N,1,22,23,NOT APPLICABLE,,ARM4,Y
S0131,5,constipation,N,1,36,37,NOT APPLICABLE,,ARM4,Y
S0131,6,sepsis,Y,3,43,45,NOT APPLICABLE,,ARM4,Y
S0131,7,nausea,N,1,54,55,NOT APPLICABLE,,ARM4,Y
S0131,8,anemia,N,1,62,63,NOT APPLICABLE,,ARM4,Y
S0131,9,hyponatremia,N,2,88,127,NOT APPLICABLE,,ARM4,Y
S0131,10,alanine_aminotransferase_increased,Y,3,104,190,NOT APPLICABLE,,ARM4,Y
S0133,1,nausea,N,1,3,4,NOT APPLICABLE,,ARM4,Y
S0133,2,palmar_plantar_erythrodysesthesia_syndrome,N,2,9,10,hold,DM035,ARM4,Y
S0133,3,pain,N,2,9,10,NOT APPLICABLE,,ARM4,Y
S0133,4,diarrhea,N,1,13,14,NOT APPLICABLE,,ARM4,Y
S0133,5,creatinine_increased,N,1,15,16,NOT APPLICABLE,,ARM4,Y
S0133,6,chills,N,1,32,33,NOT APPLICABLE,,ARM4,Y
S0133,7,dizziness,N,2,45,46,NOT APPLICABLE,,ARM4,Y
S0133,8,hemoglobin_normal_12_16_gm,N,1,53,54,NOT APPLICABLE,,ARM4,Y
S0133,9,anemia,N,1,71,72,NOT APPLICABLE,,ARM4,Y
S0133,10,anemia,Y,3,99,190,NOT APPLICABLE,,ARM4,Y
S0134,1,arthralgia,N,1,15,16,NOT APPLICABLE,,ARM3,Y
S0134,2,hypertension_variable,N,1,30,31,NOT APPLICABLE,,ARM3,Y
S0134,3,constipation,N,1,37,38,NOT APPLICABLE,,ARM3,Y
S0134,4,hyponatremia,N,1,51,52,NOT APPLICABLE,,ARM3,Y
S0134,5,TEAE with a fatal outcome,N,1,66,67,NOT APPLICABLE,,ARM3,Y
S0134,6,pruritus,N,2,69,70,NOT APPLICABLE,,ARM3,Y
S0134,7,nasal_congestion_finding,N,2,70,71,NOT APPLICABLE,,ARM3,Y
S0134,8,hyperkalemia,N,1,74,75,NOT APPLICABLE,,ARM3,Y
S0134,9,dysuria,N,1,84,127,NOT APPLICABLE,,ARM3,Y
S0134,10,fever,N,1,85,127,NOT APPLICABLE,,ARM3,Y
S0134,11,dyspepsia,N,1,87,127,NOT APPLICABLE,,ARM3,Y
S0134,12,hypoalbuminemia,N,2,98,127,NOT APPLICABLE,,ARM3,Y
S0134,13,event,N,2,101,127,NOT APPLICABLE,,ARM3,Y
S0134,14,hypocalcemia,N,2,109,127,NOT APPLICABLE,,ARM3,Y
S0135,1,hematuria,N,1,55,56,NOT APPLICABLE,,ARM3,Y
S0135,2,increased_frequency_of_micturition,N,2,73,74,NOT APPLICABLE,,ARM3,Y
S0135,3,anemia,N,2,103,127,NOT APPLICABLE,,ARM3,Y
S0136,1,hematuria,N,1,57,58,NOT APPLICABLE,,ARM3,Y
S0136,2,abdominal_pain,N,1,81,82,NOT APPLICABLE,,ARM3,Y
S0136,3,anemia,N,1,84,127,NOT APPLICABLE,,ARM3,Y
S0137,1,dysuria,N,1,1,2,NOT APPLICABLE,,ARM3,Y
S0137,2,depression_dominant,N,1,8,9,NOT APPLICABLE,,ARM3,Y
S0137,3,event,N,1,12,13,NOT APPLICABLE,,ARM3,Y
S0137,4,nasal_congestion_finding,N,1,13,14,NOT APPLICABLE,,ARM3,Y
S0137,5,nausea,N,1,17,18,NOT APPLICABLE,,ARM3,Y
S0137,6,dysgeusia,N,2,37,38,NOT APPLICABLE,,ARM3,Y
S0137,7,rash_erythematous_macules_or_papules,N,1,42,43,NOT APPLICABLE,,ARM3,Y
S0137,8,dyspnea,N,1,45,46,NOT APPLICABLE,,ARM3,Y
S0137,9,gastroesophageal_reflux_disease,N,2,51,52,NOT APPLICABLE,,ARM3,Y
S0137,10,arthralgia,N,2,52,53,NOT APPLICABLE,,ARM3,Y
S0137,11,proteinuria,N,1,52,53,NOT APPLICABLE,,ARM3,Y
S0137,12,hypoalbuminemia,N,1,58,59,NOT APPLICABLE,,ARM3,Y
S0137,13,decrease_in_appetite,N,1,60,61,NOT APPLICABLE,,ARM3,Y
S0137,14,hypertension_variable,N,1,66,67,NOT APPLICABLE,,ARM3,Y
S0137,15,hypocalcemia,N,1,66,67,NOT APPLICABLE,,ARM3,Y
S0137,16,abdominal_pain,N,2,73,74,NOT APPLICABLE,,ARM3,Y
S0137,17,pruritus,N,1,77,78,NOT APPLICABLE,,ARM3,Y
S0137,18,death_finding,Y,3,80,82,NOT APPLICABLE,,ARM3,Y
S0138,1,anemia,N,1,3,4,NOT APPLICABLE,,ARM3,Y
S0139,1,decreased_platelet_count,N,1,4,5,no_modification,DM004,ARM2,Y
S0139,2,anemia,N,2,53,54,no_modification,DM004,ARM2,Y
S0139,3,sleeplessness,N,1,69,70,NOT APPLICABLE,,ARM2,Y
S0139,4,fever,N,2,80,81,NOT APPLICABLE,,ARM2,Y
S0139,5,vomiting,N,1,85,127,NOT APPLICABLE,,ARM2,Y
S0140,1,anemia,Y,3,3,5,NOT APPLICABLE,,ARM1,Y
S0140,2,dyspnea,N,1,11,12,no_modification,DM004,ARM1,Y
S0140,3,coughing,N,1,11,12,no_modification,DM004,ARM1,Y
S0140,4,hematuria,N,1,18,19,no_modification,DM004,ARM1,Y
S0140,5,rash_erythematous_macules_or_papules,N,2,23,24,no_modification,DM004,ARM1,Y
S0140,6,hypertension_variable,N,2,27,28,no_modification,DM004,ARM1,Y
S0140,7,dysuria,N,2,27,28,no_modification,DM004,ARM1,Y
S0140,8,nasal_congestion_finding,N,1,31,32,no_modification,DM004,ARM1,Y
S0140,9,blood_creatinine_increased,N,1,38,39,no_modification,DM004,ARM1,Y
S0140,10,hypocalcemia,N,1,51,52,no_modification,DM004,ARM1,Y
S0140,11,back_pain,N,1,71,72,no_modification,DM004,ARM1,Y
S0140,12,proteinuria,N,1,84,127,no_modification,DM004,ARM1,Y
S0140,13,decrease_in_appetite,N,2,97,127,NOT APPLICABLE,,ARM1,Y
S0140,14,dizziness,N,1,97,127,NOT APPLICABLE,,ARM1,Y
S0140,15,diarrhea,N,1,100,127,NOT APPLICABLE,,ARM1,Y
S0140,16,hypoalbuminemia,N,1,114,127,NOT APPLICABLE,,ARM1,Y
S0141,1,thrombocytopenia,N,2,2,3,no_modification,DM004,ARM1,Y
S0141,2,dizziness,N,1,7,8,no_modification,DM004,ARM1,Y
S0141,3,chills,N,1,11,12,no_modification,DM004,ARM1,Y
S0141,4,headache,N,2,12,13,no_modification,DM004,ARM1,Y
S0141,5,pneumonia,Y,3,16,18,NOT APPLICABLE,,ARM1,Y
S0141,6,diarrhea,N,1,22,23,no_modification,DM004,ARM1,Y
S0141,7,coughing,N,1,22,23,no_modification,DM004,ARM1,Y
S0141,8,back_pain,N,1,23,24,no_modification,DM004,ARM1,Y
S0141,9,anemia,N,1,31,32,no_modification,DM004,ARM1,Y
S0141,10,constipation,N,1,33,34,no_modification,DM004,ARM1,Y
S0141,11,dyspnea,N,2,39,40,no_modification,DM004,ARM1,Y
S0141,12,hemoglobin_normal_12_16_gm,N,1,67,68,NOT APPLICABLE,,ARM1,Y
S0141,13,palmar_plantar_erythrodysesthesia_syndrome,N,1,79,80,NOT APPLICABLE,,ARM1,Y
S0141,14,hyperglycemia,N,2,84,127,NOT APPLICABLE,,ARM1,Y
S0141,15,pain,N,2,85,127,NOT APPLICABLE,,ARM1,Y
S0141,16,fatigue,N,1,90,127,NOT APPLICABLE,,ARM1,Y
S0142,1,hypertension_variable,N,2,2,3,no_modification,DM004,ARM2,Y
S0142,2,decrease_in_appetite,N,2,10,11,no_modification,DM004,ARM2,Y
S0142,3,dyspnea,N,1,13,14,no_modification,DM004,ARM2,Y
S0142,4,constipation,N,1,18,19,no_modification,DM004,ARM2,Y
S0142,5,anemia,Y,3,27,29,NOT APPLICABLE,,ARM2,Y
S0142,6,creatinine_increased,N,1,32,33,no_modification,DM004,ARM2,Y
S0142,7,anemia,N,2,35,36,no_modification,DM004,ARM2,Y
S0142,8,nasal_congestion_finding,N,2,37,38,no_modification,DM004,ARM2,Y
S0142,9,hypoalbuminemia,N,2,38,39,no_modification,DM004,ARM2,Y
S0142,10,dysgeusia,N,1,40,41,no_modification,DM004,ARM2,Y
S0142,11,anorexia,N,1,68,69,no_modification,DM004,ARM2,Y
S0142,12,pruritus,N,2,72,73,no_modification,DM004,ARM2,Y
S0142,13,sleeplessness,N,1,73,74,no_modification,DM004,ARM2,Y
S0142,14,hypocalcemia,N,2,76,77,no_modification,DM004,ARM2,Y
S0142,15,arthralgia,N,2,87,127,NOT APPLICABLE,,ARM2,Y
S0142,16,nausea,N,2,95,127,NOT APPLICABLE,,ARM2,Y
S0142,17,increased_frequency_of_micturition,N,1,104,127,NOT APPLICABLE,,ARM2,Y
S0142,18,blood_creatinine_increased,N,1,106,127,NOT APPLICABLE,,ARM2,Y
S0143,1,decreased_platelet_count,N,2,2,3,no_modification,DM004,ARM1,Y
S0143,2,dysgeusia,N,2,13,14,NOT APPLICABLE,,ARM1,Y
S0143,3,urinary_tract_infection,N,1,24,25,NOT APPLICABLE,,ARM1,Y
S0143,4,nausea,N,1,27,28,NOT APPLICABLE,,ARM1,Y
S0143,5,decrease_in_appetite,N,1,34,35,NOT APPLICABLE,,ARM1,Y
S0143,6,anemia,N,2,42,43,NOT APPLICABLE,,ARM1,Y
S0144,1,blood_creatinine_increased,N,2,17,18,no_modification,DM004,ARM2,Y
S0144,2,dyspnea,N,2,24,25,no_modification,DM004,ARM2,Y
S0144,3,maculopapular_lesion,N,2,24,25,no_modification,DM004,ARM2,Y
S0144,4,decrease_in_appetite,N,2,33,34,no_modification,DM004,ARM2,Y
S0144,5,hypocalcemia,N,2,35,36,no_modification,DM004,ARM2,Y
S0144,6,back_pain,N,2,40,41,no_modification,DM004,ARM2,Y
S0144,7,dysuria,N,2,50,51,no_modification,DM004,ARM2,Y
S0144,8,creatinine_increased,N,2,54,55,no_modification,DM004,ARM2,Y
S0144,9,sleeplessness,N,2,65,66,NOT APPLICABLE,,ARM2,Y
S0144,10,other serious adverse events (not individually predicted),Y,3,67,69,NOT APPLICABLE,,ARM2,Y
S0144,11,hypertension_variable,N,1,68,69,NOT APPLICABLE,,ARM2,Y
S0144,12,nasal_congestion_finding,N,1,75,76,NOT APPLICABLE,,ARM2,Y
S0144,13,nausea,N,1,79,80,NOT APPLICABLE,,ARM2,Y
S0144,14,hypoalbuminemia,N,1,86,127,NOT APPLICABLE,,ARM2,Y
S0144,15,hyperphosphatemia,N,1,92,127,NOT APPLICABLE,,ARM2,Y
S0144,16,event,N,1,94,127,NOT APPLICABLE,,ARM2,Y
S0145,1,dysuria,N,2,1,2,no_modification,DM004,ARM1,Y
S0145,2,hypertension_variable,N,2,3,4,no_modification,DM004,ARM1,Y
S0145,3,hyperphosphatemia,N,2,4,5,no_modification,DM004,ARM1,Y
S0145,4,dyspepsia,N,2,6,7,no_modification,DM004,ARM1,Y
S0145,5,hematuria,N,1,7,8,no_modification,DM004,ARM1,Y
S0145,6,hypoalbuminemia,N,2,10,11,no_modification,DM004,ARM1,Y
S0145,7,dizziness,N,1,12,13,no_modification,DM004,ARM1,Y
S0145,8,hypocalcemia,N,1,21,22,no_modification,DM004,ARM1,Y
S0145,9,hypomagnesemia,N,1,22,23,no_modification,DM004,ARM1,Y
S0145,10,hyperglycemia,N,2,28,29,no_modification,DM004,ARM1,Y
S0145,11,event,N,1,40,41,no_modification,DM004,ARM1,Y
S0145,12,maculopapular_lesion,N,2,48,49,no_modification,DM004,ARM1,Y
S0145,13,blood_creatinine_increased,N,2,55,56,no_modification,DM004,ARM1,Y
S0145,14,nasal_congestion_finding,N,2,56,57,no_modification,DM004,ARM1,Y
S0145,15,hyponatremia,N,2,66,67,no_modification,DM004,ARM1,Y
S0145,16,arthralgia,N,2,91,127,NOT APPLICABLE,,ARM1,Y
S0145,17,pruritus,N,1,103,127,NOT APPLICABLE,,ARM1,Y
S0145,18,back_pain,N,1,113,127,NOT APPLICABLE,,ARM1,Y
S0146,1,anemia,N,2,24,25,no_modification,DM004,ARM1,Y
S0146,2,alanine_aminotransferase_increased,N,1,26,27,no_modification,DM004,ARM1,Y
S0146,3,pneumonia,Y,3,28,30,NOT APPLICABLE,,ARM1,Y
S0146,4,fever,Y,3,43,45,NOT APPLICABLE,,ARM1,Y
S0146,5,alanine_aminotransferase_increased,Y,3,43,45,discontinue_agent,DM029,ARM1,Y
S0146,6,hiccough,N,1,58,59,no_modification,DM004,ARM1,Y
S0146,7,dizziness,N,2,64,65,no_modification,DM004,ARM1,Y
S0146,8,dyspnea,N,2,79,80,NOT APPLICABLE,,ARM1,Y
S0146,9,nausea,N,1,88,127,NOT APPLICABLE,,ARM1,Y
S0146,10,decrease_in_appetite,N,2,89,127,NOT APPLICABLE,,ARM1,Y
S0147,1,nausea,N,2,13,14,NOT APPLICABLE,,ARM4,Y
S0147,2,hematuria,N,1,38,39,NOT APPLICABLE,,ARM4,Y
S0147,3,decrease_in_appetite,N,2,63,64,NOT APPLICABLE,,ARM4,Y
S0147,4,anemia,N,2,72,73,NOT APPLICABLE,,ARM4,Y
S0148,1,hypomagnesemia,N,1,12,13,no_modification,DM004,ARM1,Y
S0148,2,nausea,N,2,27,28,no_modification,DM004,ARM1,Y
S0148,3,vomiting,N,2,33,34,no_modification,DM004,ARM1,Y
S0148,4,dizziness,N,1,36,37,no_modification,DM004,ARM1,Y
S0148,5,hiccough,N,2,46,47,no_modification,DM004,ARM1,Y
S0148,6,coughing,N,1,49,50,no_modification,DM004,ARM1,Y
S0148,7,hypokalemia,N,1,71,72,no_modification,DM004,ARM1,Y
S0148,8,decreased_platelet_count,N,1,73,74,no_modification,DM004,ARM1,Y
S0148,9,headache,N,1,74,75,no_modification,DM004,ARM1,Y
S0148,10,constipation,N,2,76,77,no_modification,DM004,ARM1,Y
S0148,11,anemia,N,2,87,127,NOT APPLICABLE,,ARM1,Y
S0148,12,fever,N,2,101,127,NOT APPLICABLE,,ARM1,Y
S0148,13,thrombocytopenia,N,2,103,127,NOT APPLICABLE,,ARM1,Y
S0148,14,neutrophil_count_decreased,N,2,107,127,NOT APPLICABLE,,ARM1,Y
S0149,1,aspartate_aminotransferase_increased,N,2,3,4,no_modification,DM004,ARM2,Y
S0149,2,hematuria,N,1,18,19,no_modification,DM004,ARM2,Y
S0149,3,anemia,N,2,50,51,no_modification,DM004,ARM2,Y
S0149,4,sleeplessness,N,2,77,78,no_modification,DM004,ARM2,Y
S0149,5,fever,N,2,78,79,no_modification,DM004,ARM2,Y
S0149,6,alanine_aminotransferase_increased,N,1,107,127,NOT APPLICABLE,,ARM2,Y
S0149,7,fever,Y,3,114,190,NOT APPLICABLE,,ARM2,Y
S0150,1,nausea,N,1,72,73,NOT APPLICABLE,,ARM3,Y
S0150,2,hematuria,N,2,72,73,NOT APPLICABLE,,ARM3,Y
S0150,3,dizziness,N,2,90,127,NOT APPLICABLE,,ARM3,Y
S0150,4,increased_frequency_of_micturition,N,2,99,127,NOT APPLICABLE,,ARM3,Y
S0150,5,hiccough,N,2,105,127,NOT APPLICABLE,,ARM3,Y
S0151,1,thrombocytopenia,N,2,1,2,no_modification,DM004,ARM1,Y
S0151,2,hypertension_variable,N,1,1,2,no_modification,DM004,ARM1,Y
S0151,3,nausea,N,2,5,6,no_modification,DM004,ARM1,Y
S0151,4,constipation,N,1,13,14,no_modification,DM004,ARM1,Y
S0151,5,creatinine_increased,N,2,14,15,no_modification,DM004,ARM1,Y
S0151,6,chills,N,1,22,23,no_modification,DM004,ARM1,Y
S0151,7,coughing,N,1,34,35,no_modification,DM004,ARM1,Y
S0151,8,hypomagnesemia,N,1,35,36,no_modification,DM004,ARM1,Y
S0151,9,headache,N,1,36,37,no_modification,DM004,ARM1,Y
S0151,10,anorexia,N,2,37,38,no_modification,DM004,ARM1,Y
S0151,11,palmar_plantar_erythrodysesthesia_syndrome,N,1,37,38,hold;no_modification,DM004;DM035,ARM1,Y
S0151,12,hemoglobin_normal_12_16_gm,N,2,37,38,no_modification,DM004,ARM1,Y
S0151,13,pain,N,1,87,127,NOT APPLICABLE,,ARM1,Y
S0151,14,vomiting,N,2,87,127,NOT APPLICABLE,,ARM1,Y
S0151,15,hematuria,N,1,87,127,NOT APPLICABLE,,ARM1,Y
S0152,1,peripheral_edema,N,2,4,5,NOT APPLICABLE,,ARM3,Y
S0152,2,decreased_platelet_count,N,1,9,10,NOT APPLICABLE,,ARM3,Y
S0152,3,hyperglycemia,N,1,9,10,NOT APPLICABLE,,ARM3,Y
S0152,4,hypomagnesemia,N,1,16,17,NOT APPLICABLE,,ARM3,Y
S0152,5,anemia,N,2,17,18,NOT APPLICABLE,,ARM3,Y
S0152,6,abdominal_pain,N,2,19,20,NOT APPLICABLE,,ARM3,Y
S0152,7,rash_erythematous_macules_or_papules,N,2,23,24,NOT APPLICABLE,,ARM3,Y
S0152,8,nausea,N,2,34,35,NOT APPLICABLE,,ARM3,Y
S0152,9,coughing,N,2,52,53,NOT APPLICABLE,,ARM3,Y
S0152,10,anorexia,N,2,52,53,NOT APPLICABLE,,ARM3,Y
S0152,11,proteinuria,N,2,52,53,NOT APPLICABLE,,ARM3,Y
S0152,12,vomiting,N,1,55,56,NOT APPLICABLE,,ARM3,Y
S0152,13,hypertension_variable,N,2,84,127,NOT APPLICABLE,,ARM3,Y
S0153,1,hyperphosphatemia,N,1,30,31,no_modification,DM004,ARM1,Y
S0153,2,hypocalcemia,N,2,46,47,no_modification,DM004,ARM1,Y
S0153,3,event,N,2,51,52,no_modification,DM004,ARM1,Y
S0153,4,pruritus,N,1,67,68,no_modification,DM004,ARM1,Y
S0153,5,back_pain,N,2,67,68,no_modification,DM004,ARM1,Y
S0153,6,pain_in_limb,N,2,70,71,no_modification,DM004,ARM1,Y
S0153,7,arthralgia,N,1,76,77,no_modification,DM004,ARM1,Y
S0153,8,fever,N,2,76,77,no_modification,DM004,ARM1,Y
S0153,9,anemia,N,1,86,127,NOT APPLICABLE,,ARM1,Y
S0153,10,hypertension_variable,N,1,87,127,NOT APPLICABLE,,ARM1,Y
S0153,11,hypoalbuminemia,N,1,89,127,NOT APPLICABLE,,ARM1,Y
S0153,12,dysuria,N,1,99,127,NOT APPLICABLE,,ARM1,Y
S0153,13,nasal_congestion_finding,N,1,109,127,NOT APPLICABLE,,ARM1,Y
S0154,1,hypoalbuminemia,N,2,2,3,NOT APPLICABLE,,ARM3,Y
S0154,2,decrease_in_appetite,N,2,9,10,NOT APPLICABLE,,ARM3,Y
S0154,3,coughing,N,2,12,13,NOT APPLICABLE,,ARM3,Y
S0154,4,decreased_platelet_count,Y,3,15,17,NOT APPLICABLE,,ARM3,Y
S0154,5,dyspnea,N,1,16,17,NOT APPLICABLE,,ARM3,Y
S0154,6,hypertension_variable,N,1,17,18,NOT APPLICABLE,,ARM3,Y
S0154,7,rash_erythematous_macules_or_papules,N,1,19,20,NOT APPLICABLE,,ARM3,Y
S0154,8,hematuria,Y,3,22,24,NOT APPLICABLE,,ARM3,Y
S0154,9,nausea,N,1,23,24,NOT APPLICABLE,,ARM3,Y
S0154,10,aspartate_aminotransferase_increased,N,1,25,26,NOT APPLICABLE,,ARM3,Y
S0154,11,hyponatremia,N,2,26,27,NOT APPLICABLE,,ARM3,Y
S0154,12,urinary_tract_infection,N,1,27,28,NOT APPLICABLE,,ARM3,Y
S0154,13,hiccough,N,1,28,29,NOT APPLICABLE,,ARM3,Y
S0154,14,anemia,N,1,31,32,NOT APPLICABLE,,ARM3,Y
S0154,15,fatigue,N,1,36,37,NOT APPLICABLE,,ARM3,Y
S0154,16,alanine_aminotransferase_increased,N,1,38,39,NOT APPLICABLE,,ARM3,Y
S0154,17,hypothyroidism,N,2,39,40,NOT APPLICABLE,,ARM3,Y
S0154,18,weight_loss,N,1,43,44,NOT APPLICABLE,,ARM3,Y
S0154,19,hypomagnesemia,N,1,45,46,NOT APPLICABLE,,ARM3,Y
S0154,20,decreased_platelet_count,N,2,47,48,NOT APPLICABLE,,ARM3,Y
S0154,21,hyperkalemia,N,2,48,49,NOT APPLICABLE,,ARM3,Y
S0154,22,fever,N,2,49,50,NOT APPLICABLE,,ARM3,Y
S0154,23,asthenia,N,1,49,50,NOT APPLICABLE,,ARM3,Y
S0154,24,pneumonia,Y,3,55,57,NOT APPLICABLE,,ARM3,Y
S0155,1,pain,N,2,10,11,NOT APPLICABLE,,ARM4,Y
S0155,2,creatinine_increased,N,2,32,33,NOT APPLICABLE,,ARM4,Y
S0155,3,hemoglobin_normal_12_16_gm,N,2,40,41,NOT APPLICABLE,,ARM4,Y
S0155,4,vomiting,N,1,50,51,NOT APPLICABLE,,ARM4,Y
S0155,5,alanine_aminotransferase_increased,N,1,58,59,NOT APPLICABLE,,ARM4,Y
S0155,6,hematuria,N,2,62,63,NOT APPLICABLE,,ARM4,Y
S0155,7,dyspnea,N,1,64,65,NOT APPLICABLE,,ARM4,Y
S0155,8,constipation,N,1,69,70,NOT APPLICABLE,,ARM4,Y
S0155,9,chills,N,2,75,76,NOT APPLICABLE,,ARM4,Y
S0155,10,palmar_plantar_erythrodysesthesia_syndrome,N,2,83,84,NOT APPLICABLE,,ARM4,Y
S0155,11,dizziness,N,1,91,127,NOT APPLICABLE,,ARM4,Y
S0156,1,nasal_congestion_finding,N,1,3,4,no_modification,DM004,ARM1,Y
S0156,2,dyspnea,N,2,13,14,no_modification,DM004,ARM1,Y
S0156,3,event,N,1,13,14,no_modification,DM004,ARM1,Y
S0156,4,nausea,N,2,15,16,no_modification,DM004,ARM1,Y
S0156,5,decrease_in_appetite,N,2,23,24,no_modification,DM004,ARM1,Y
S0156,6,hypoalbuminemia,N,2,34,35,no_modification,DM004,ARM1,Y
S0156,7,hypocalcemia,N,1,34,35,no_modification,DM004,ARM1,Y
S0156,8,pain_in_limb,N,1,64,65,no_modification,DM004,ARM1,Y
S0156,9,pruritus,N,2,65,66,NOT APPLICABLE,,ARM1,Y
S0156,10,hypomagnesemia,N,1,67,68,NOT APPLICABLE,,ARM1,Y
S0156,11,other serious adverse events (not individually predicted),Y,3,70,72,NOT APPLICABLE,,ARM1,Y
S0156,12,arthralgia,N,1,79,80,NOT APPLICABLE,,ARM1,Y
S0156,13,dysuria,N,1,86,127,NOT APPLICABLE,,ARM1,Y
S0156,14,hypertension_variable,N,2,92,127,NOT APPLICABLE,,ARM1,Y
S0157,1,hyperglycemia,N,2,3,4,no_modification,DM004,ARM1,Y
S0157,2,proteinuria,N,2,4,5,no_modification,DM004,ARM1,Y
S0157,3,asthenia,N,1,15,16,no_modification,DM004,ARM1,Y
S0157,4,fever,N,1,17,18,no_modification,DM004,ARM1,Y
S0157,5,rash_erythematous_macules_or_papules,N,2,18,19,no_modification,DM004,ARM1,Y
S0157,6,decreased_platelet_count,N,1,40,41,no_modification,DM004,ARM1,Y
S0157,7,abdominal_pain,N,2,49,50,no_modification,DM004,ARM1,Y
S0157,8,nausea,N,2,56,57,no_modification,DM004,ARM1,Y
S0157,9,anorexia,N,2,78,79,NOT APPLICABLE,,ARM1,Y
S0157,10,vomiting,N,1,90,127,NOT APPLICABLE,,ARM1,Y
S0158,1,hypoalbuminemia,N,1,26,27,NOT APPLICABLE,,ARM4,Y
S0158,2,urinary_tract_infection,N,2,53,54,NOT APPLICABLE,,ARM4,Y
S0159,1,constipation,N,2,6,7,NOT APPLICABLE,,ARM4,Y
S0159,2,nasal_congestion_finding,N,1,10,11,NOT APPLICABLE,,ARM4,Y
S0159,3,dyspnea,N,2,36,37,NOT APPLICABLE,,ARM4,Y
S0159,4,arthralgia,N,1,38,39,NOT APPLICABLE,,ARM4,Y
S0159,5,dehydration,N,2,40,41,NOT APPLICABLE,,ARM4,Y
S0159,6,back_pain,N,1,47,48,NOT APPLICABLE,,ARM4,Y
S0159,7,other serious adverse events (not individually predicted),Y,3,59,61,NOT APPLICABLE,,ARM4,Y
S0159,8,decrease_in_appetite,N,2,63,64,NOT APPLICABLE,,ARM4,Y
S0159,9,hypoalbuminemia,N,2,67,68,NOT APPLICABLE,,ARM4,Y
S0159,10,hypocalcemia,N,2,67,68,NOT APPLICABLE,,ARM4,Y
S0159,11,hypertension_variable,N,1,85,127,NOT APPLICABLE,,ARM4,Y
S0159,12,hypomagnesemia,N,1,87,127,NOT APPLICABLE,,ARM4,Y
S0159,13,dysuria,N,2,98,127,NOT APPLICABLE,,ARM4,Y
S0159,14,event,N,2,98,127,NOT APPLICABLE,,ARM4,Y
S0159,15,sleeplessness,N,1,104,127,NOT APPLICABLE,,ARM4,Y
S0159,16,death_finding,Y,3,111,190,NOT APPLICABLE,,ARM4,Y
S0160,1,hematuria,N,2,6,7,no_modification,DM004,ARM2,Y
S0160,2,alkaline_phosphatase_raised,N,2,7,8,no_modification,DM004,ARM2,Y
S0160,3,anemia,N,2,12,13,no_modification,DM004,ARM2,Y
S0160,4,diarrhea,N,2,30,31,no_modification,DM004,ARM2,Y
S0160,5,hypertension_variable,N,1,32,33,no_modification,DM004,ARM2,Y
S0160,6,palmar_plantar_erythrodysesthesia_syndrome,N,2,43,44,no_modification,DM004,ARM2,Y
S0160,7,constipation,N,2,50,51,no_modification,DM004,ARM2,Y
S0160,8,chills,N,2,52,53,no_modification,DM004,ARM2,Y
S0161,1,decreased_platelet_count,N,2,1,2,NOT APPLICABLE,,ARM4,Y
S0161,2,hypertension_variable,N,1,2,3,NOT APPLICABLE,,ARM4,Y
S0161,3,hiccough,N,2,6,7,NOT APPLICABLE,,ARM4,Y
S0161,4,diarrhea,N,1,10,11,NOT APPLICABLE,,ARM4,Y
S0161,5,fatigue,N,1,11,12,NOT APPLICABLE,,ARM4,Y
S0161,6,vomiting,N,1,22,23,NOT APPLICABLE,,ARM4,Y
S0161,7,hyperkalemia,N,1,25,26,NOT APPLICABLE,,ARM4,Y
S0161,8,alanine_aminotransferase_increased,Y,3,27,29,discontinue_agent,DM029,ARM4,Y
S0161,9,hematuria,N,1,28,29,NOT APPLICABLE,,ARM4,Y
S0161,10,peripheral_edema,N,2,33,34,NOT APPLICABLE,,ARM4,Y
S0161,11,nausea,N,1,38,39,NOT APPLICABLE,,ARM4,Y
S0161,12,fever,N,1,38,39,NOT APPLICABLE,,ARM4,Y
S0161,13,decreased_platelet_count,Y,3,43,45,NOT APPLICABLE,,ARM4,Y
S0161,14,hypoalbuminemia,N,1,44,45,NOT APPLICABLE,,ARM4,Y
S0161,15,anemia,N,1,50,51,NOT APPLICABLE,,ARM4,Y
S0161,16,constipation,N,2,60,61,NOT APPLICABLE,,ARM4,Y
S0161,17,anorexia,N,2,60,61,NOT APPLICABLE,,ARM4,Y
S0161,18,lipase_increased,N,1,75,76,NOT APPLICABLE,,ARM4,Y
S0161,19,headache,N,2,77,78,NOT APPLICABLE,,ARM4,Y
S0161,20,alanine_aminotransferase_increased,N,2,78,79,NOT APPLICABLE,,ARM4,Y
S0161,21,urinary_tract_infection,N,2,81,82,NOT APPLICABLE,,ARM4,Y
S0161,22,decrease_in_appetite,N,2,91,127,NOT APPLICABLE,,ARM4,Y
S0162,1,arthralgia,N,2,7,8,NOT APPLICABLE,,ARM4,Y
S0162,2,dyspnea,N,2,12,13,NOT APPLICABLE,,ARM4,Y
S0162,3,hypomagnesemia,N,1,30,31,NOT APPLICABLE,,ARM4,Y
S0162,4,nasal_congestion_finding,N,2,35,36,NOT APPLICABLE,,ARM4,Y
S0162,5,paresthesia,N,1,51,52,NOT APPLICABLE,,ARM4,Y
S0162,6,other serious adverse events (not individually predicted),Y,3,55,57,NOT APPLICABLE,,ARM4,Y
S0162,7,oral_pain,N,2,59,60,NOT APPLICABLE,,ARM4,Y
S0162,8,pruritus,N,1,67,68,NOT APPLICABLE,,ARM4,Y
S0162,9,hypocalcemia,N,1,67,68,NOT APPLICABLE,,ARM4,Y
S0162,10,dry_skin,N,1,72,73,NOT APPLICABLE,,ARM4,Y
S0162,11,hypoalbuminemia,N,2,77,78,NOT APPLICABLE,,ARM4,Y
S0162,12,hypertension_variable,N,2,85,127,NOT APPLICABLE,,ARM4,Y
S0162,13,decrease_in_appetite,N,2,92,127,NOT APPLICABLE,,ARM4,Y
S0163,1,nausea,N,2,37,38,NOT APPLICABLE,,ARM3,Y
S0163,2,hyponatremia,N,1,39,40,NOT APPLICABLE,,ARM3,Y
S0163,3,dizziness,N,2,41,42,NOT APPLICABLE,,ARM3,Y
S0163,4,anemia,N,2,46,47,NOT APPLICABLE,,ARM3,Y
S0163,5,vomiting,N,2,51,52,NOT APPLICABLE,,ARM3,Y
S0163,6,fever,Y,3,53,55,NOT APPLICABLE,,ARM3,Y
S0163,7,abdominal_pain,N,1,76,77,NOT APPLICABLE,,ARM3,Y
S0163,8,proteinuria,N,1,83,84,NOT APPLICABLE,,ARM3,Y
S0163,9,decreased_platelet_count,N,2,104,127,NOT APPLICABLE,,ARM3,Y
S0163,10,headache,N,1,104,127,NOT APPLICABLE,,ARM3,Y
S0163,11,other serious adverse events (not individually predicted),Y,3,104,190,NOT APPLICABLE,,ARM3,Y
S0164,1,anemia,Y,3,28,30,NOT APPLICABLE,,ARM2,Y
S0164,2,fatigue,N,2,35,36,no_modification,DM004,ARM2,Y
S0164,3,thrombocytopenia,N,1,45,46,no_modification,DM004,ARM2,Y
S0164,4,constipation,N,2,47,48,no_modification,DM004,ARM2,Y
S0164,5,pain,N,1,53,54,no_modification,DM004,ARM2,Y
S0164,6,vomiting,N,2,53,54,no_modification,DM004,ARM2,Y
S0164,7,headache,N,1,89,127,NOT APPLICABLE,,ARM2,Y
S0164,8,palmar_plantar_erythrodysesthesia_syndrome,N,1,91,127,NOT APPLICABLE,,ARM2,Y
S0164,9,hemoglobin_normal_12_16_gm,N,2,106,127,NOT APPLICABLE,,ARM2,Y
S0164,10,dizziness,N,1,113,127,NOT APPLICABLE,,ARM2,Y
S0165,1,anemia,N,1,24,25,NOT APPLICABLE,,ARM3,Y
S0166,1,decreased_platelet_count,Y,3,21,23,NOT APPLICABLE,,ARM2,Y
S0166,2,increased_frequency_of_micturition,N,2,28,29,no_modification,DM004,ARM2,Y
S0166,3,dysgeusia,N,2,37,38,no_modification,DM004,ARM2,Y
S0166,4,hypoalbuminemia,N,1,51,52,no_modification,DM004,ARM2,Y
S0166,5,hematuria,N,2,54,55,no_modification,DM004,ARM2,Y
S0166,6,fever,N,1,64,65,no_modification,DM004,ARM2,Y
S0166,7,sleeplessness,N,2,77,78,no_modification,DM004,ARM2,Y
S0166,8,urinary_tract_infection,N,1,78,79,no_modification,DM004,ARM2,Y
S0166,9,anemia,N,1,81,82,no_modification,DM004,ARM2,Y
S0166,10,paresthesia,N,1,95,127,NOT APPLICABLE,,ARM2,Y
S0166,11,asthenia,N,2,106,127,NOT APPLICABLE,,ARM2,Y
S0167,1,dyspnea,N,1,1,2,NOT APPLICABLE,,ARM4,Y
S0167,2,anorexia,N,2,1,2,NOT APPLICABLE,,ARM4,Y
S0167,3,constipation,N,2,7,8,NOT APPLICABLE,,ARM4,Y
S0167,4,anemia,N,1,8,9,NOT APPLICABLE,,ARM4,Y
S0167,5,hypoalbuminemia,N,1,12,13,NOT APPLICABLE,,ARM4,Y
S0167,6,diarrhea,N,1,13,14,NOT APPLICABLE,,ARM4,Y
S0167,7,fever,Y,3,16,18,NOT APPLICABLE,,ARM4,Y
S0167,8,hypertension_variable,N,2,18,19,NOT APPLICABLE,,ARM4,Y
S0167,9,vomiting,N,1,20,21,NOT APPLICABLE,,ARM4,Y
S0167,10,acute_kidney_injury,Y,3,21,23,NOT APPLICABLE,,ARM4,Y
S0167,11,hypokalemia,N,2,23,24,NOT APPLICABLE,,ARM4,Y
S0167,12,decreased_platelet_count,N,2,27,28,NOT APPLICABLE,,ARM4,Y
S0167,13,decreased_platelet_count,Y,3,27,29,NOT APPLICABLE,,ARM4,Y
S0167,14,decrease_in_appetite,N,1,30,31,NOT APPLICABLE,,ARM4,Y
S0167,15,fever,N,1,32,33,NOT APPLICABLE,,ARM4,Y
S0167,16,urinary_tract_infection,N,2,36,37,NOT APPLICABLE,,ARM4,Y
S0167,17,hyperkalemia,N,1,36,37,NOT APPLICABLE,,ARM4,Y
S0167,18,pneumonia,Y,3,37,39,NOT APPLICABLE,,ARM4,Y
S0167,19,pruritus,N,2,54,55,NOT APPLICABLE,,ARM4,Y
S0167,20,hypothyroidism,N,2,55,56,no_modification,DM034,ARM4,Y
S0167,21,sleeplessness,N,2,56,57,NOT APPLICABLE,,ARM4,Y
S0167,22,leukopenia,N,2,57,58,NOT APPLICABLE,,ARM4,Y
S0167,23,alanine_aminotransferase_increased,Y,3,59,61,discontinue_agent,DM029,ARM4,Y
S0167,24,aspartate_aminotransferase_increased,N,1,60,61,NOT APPLICABLE,,ARM4,Y
S0167,25,increased_frequency_of_micturition,N,2,63,64,NOT APPLICABLE,,ARM4,Y
S0167,26,abdominal_pain,N,2,68,69,NOT APPLICABLE,,ARM4,Y
S0167,27,sepsis,Y,3,69,71,NOT APPLICABLE,,ARM4,Y
S0167,28,coughing,N,1,71,72,NOT APPLICABLE,,ARM4,Y
S0167,29,hiccough,N,2,73,74,NOT APPLICABLE,,ARM4,Y
S0167,30,weight_loss,N,2,76,77,NOT APPLICABLE,,ARM4,Y
S0167,31,nausea,N,2,89,127,NOT APPLICABLE,,ARM4,Y
S0167,32,blood_creatinine_increased,N,1,89,127,NOT APPLICABLE,,ARM4,Y
S0167,33,hypomagnesemia,N,1,96,127,NOT APPLICABLE,,ARM4,Y
S0167,34,hematuria,N,2,99,127,NOT APPLICABLE,,ARM4,Y
S0167,35,alanine_aminotransferase_increased,N,2,108,127,NOT APPLICABLE,,ARM4,Y
S0167,36,dysgeusia,N,2,109,127,NOT APPLICABLE,,ARM4,Y
S0167,37,back_pain,N,1,110,127,NOT APPLICABLE,,ARM4,Y
S0167,38,fatigue,N,2,114,127,NOT APPLICABLE,,ARM4,Y
S0167,39,rash_erythematous_macules_or_papules,N,2,114,127,NOT APPLICABLE,,ARM4,Y
S0168,1,anemia,N,2,14,15,no_modification,DM004,ARM2,Y
S0168,2,decrease_in_appetite,N,1,16,17,no_modification,DM004,ARM2,Y
S0168,3,dizziness,N,1,34,35,no_modification,DM004,ARM2,Y
S0168,4,nausea,N,1,53,54,no_modification,DM004,ARM2,Y
S0168,5,thrombocytopenia,N,2,61,62,no_modification,DM004,ARM2,Y
S0169,1,alanine_aminotransferase_increased,N,1,5,6,NOT APPLICABLE,,ARM4,Y
S0169,2,constipation,N,2,6,7,NOT APPLICABLE,,ARM4,Y
S0169,3,hypertension_variable,N,1,10,11,NOT APPLICABLE,,ARM4,Y
S0169,4,nausea,N,2,11,12,NOT APPLICABLE,,ARM4,Y
S0169,5,decrease_in_appetite,N,2,16,17,NOT APPLICABLE,,ARM4,Y
S0169,6,anemia,N,2,19,20,NOT APPLICABLE,,ARM4,Y
S0169,7,urinary_tract_infection,N,1,20,21,NOT APPLICABLE,,ARM4,Y
S0169,8,fatigue,N,1,21,22,NOT APPLICABLE,,ARM4,Y
S0169,9,pruritus,N,2,26,27,NOT APPLICABLE,,ARM4,Y
S0169,10,asthenia,N,1,27,28,NOT APPLICABLE,,ARM4,Y
S0169,11,dysgeusia,N,1,29,30,NOT APPLICABLE,,ARM4,Y
S0169,12,fever,N,2,34,35,NOT APPLICABLE,,ARM4,Y
S0169,13,sepsis,Y,3,34,36,NOT APPLICABLE,,ARM4,Y
S0169,14,increased_frequency_of_micturition,N,2,36,37,NOT APPLICABLE,,ARM4,Y
S0169,15,fever,Y,3,54,56,NOT APPLICABLE,,ARM4,Y
S0169,16,paresthesia,N,2,55,56,NOT APPLICABLE,,ARM4,Y
S0169,17,peripheral_edema,N,1,57,58,NOT APPLICABLE,,ARM4,Y
S0169,18,hiccough,N,1,58,59,NOT APPLICABLE,,ARM4,Y
S0169,19,hyponatremia,N,2,63,64,NOT APPLICABLE,,ARM4,Y
S0169,20,hematuria,N,1,73,74,NOT APPLICABLE,,ARM4,Y
S0169,21,decreased_platelet_count,Y,3,79,81,NOT APPLICABLE,,ARM4,Y
S0169,22,weight_loss,N,2,88,127,NOT APPLICABLE,,ARM4,Y
S0169,23,pneumonia,Y,3,93,190,NOT APPLICABLE,,ARM4,Y
S0169,24,hypoalbuminemia,N,1,100,127,NOT APPLICABLE,,ARM4,Y
S0170,1,back_pain,N,2,3,4,NOT APPLICABLE,,ARM3,Y
S0170,2,pain,N,2,5,6,NOT APPLICABLE,,ARM3,Y
S0170,3,decrease_in_appetite,N,2,10,11,NOT APPLICABLE,,ARM3,Y
S0170,4,event,N,1,16,17,NOT APPLICABLE,,ARM3,Y
S0170,5,coughing,N,1,22,23,NOT APPLICABLE,,ARM3,Y
S0170,6,hypokalemia,N,1,23,24,NOT APPLICABLE,,ARM3,Y
S0170,7,hypoalbuminemia,N,1,26,27,NOT APPLICABLE,,ARM3,Y
S0170,8,hypercalcemia,N,1,29,30,NOT APPLICABLE,,ARM3,Y
S0170,9,dyspnea,N,2,33,34,NOT APPLICABLE,,ARM3,Y
S0170,10,pneumonia,Y,3,34,36,NOT APPLICABLE,,ARM3,Y
S0170,11,dysuria,N,2,51,52,NOT APPLICABLE,,ARM3,Y
S0170,12,creatinine_increased,N,2,56,57,NOT APPLICABLE,,ARM3,Y
S0170,13,hypertension_variable,N,1,71,72,NOT APPLICABLE,,ARM3,Y
S0170,14,blood_creatinine_increased,N,2,86,127,NOT APPLICABLE,,ARM3,Y
S0170,15,nausea,N,1,92,127,NOT APPLICABLE,,ARM3,Y
S0170,16,hyponatremia,N,1,93,127,NOT APPLICABLE,,ARM3,Y
S0171,1,nausea,N,2,13,14,NOT APPLICABLE,,ARM3,Y
S0171,2,decreased_platelet_count,N,2,43,44,NOT APPLICABLE,,ARM3,Y
S0171,3,anemia,N,1,51,52,NOT APPLICABLE,,ARM3,Y
S0171,4,other serious adverse events (not individually predicted),Y,3,61,63,NOT APPLICABLE,,ARM3,Y
S0171,5,lipase_increased,N,2,65,66,NOT APPLICABLE,,ARM3,Y
S0171,6,fever,N,1,88,127,NOT APPLICABLE,,ARM3,Y
S0171,7,coughing,N,1,88,127,NOT APPLICABLE,,ARM3,Y
S0171,8,vomiting,N,2,107,127,NOT APPLICABLE,,ARM3,Y
S0172,1,maculopapular_lesion,N,1,3,4,no_modification,DM004,ARM1,Y
S0172,2,event,N,2,5,6,no_modification,DM004,ARM1,Y
S0172,3,nausea,N,1,9,10,no_modification,DM004,ARM1,Y
S0172,4,hypertension_variable,N,1,9,10,no_modification,DM004,ARM1,Y
S0172,5,decrease_in_appetite,N,1,10,11,no_modification,DM004,ARM1,Y
S0172,6,dysuria,N,2,17,18,no_modification,DM004,ARM1,Y
S0172,7,hypoalbuminemia,N,1,23,24,no_modification,DM004,ARM1,Y
S0172,8,other serious adverse events (not individually predicted),Y,3,42,44,NOT APPLICABLE,,ARM1,Y
S0172,9,dyspnea,N,2,45,46,no_modification,DM004,ARM1,Y
S0172,10,back_pain,N,1,51,52,no_modification,DM004,ARM1,Y
S0172,11,hyponatremia,N,2,55,56,no_modification,DM004,ARM1,Y
S0172,12,diarrhea,N,1,60,61,no_modification,DM004,ARM1,Y
S0172,13,pruritus,N,2,61,62,no_modification,DM004,ARM1,Y
S0172,14,rash_erythematous_macules_or_papules,N,2,67,68,no_modification,DM004,ARM1,Y
S0172,15,hypocalcemia,N,2,75,76,no_modification,DM004,ARM1,Y
S0172,16,nasal_congestion_finding,N,2,75,76,no_modification,DM004,ARM1,Y
S0172,17,hyperphosphatemia,N,1,101,127,NOT APPLICABLE,,ARM1,Y
S0173,1,hyperglycemia,N,1,4,5,NOT APPLICABLE,,ARM4,Y
S0173,2,anemia,N,1,12,13,NOT APPLICABLE,,ARM4,Y
S0173,3,pain,N,1,26,27,NOT APPLICABLE,,ARM4,Y
S0173,4,alanine_aminotransferase_increased,N,1,37,38,NOT APPLICABLE,,ARM4,Y
S0173,5,aspartate_aminotransferase_increased,N,2,53,54,hold,DM028,ARM4,Y
S0173,6,diarrhea,N,2,58,59,hold,DM026,ARM4,Y
S0173,7,creatinine_increased,N,2,70,71,NOT APPLICABLE,,ARM4,Y
S0173,8,acute_kidney_injury,Y,3,75,77,NOT APPLICABLE,,ARM4,Y
S0173,9,lipase_increased,N,2,87,127,NOT APPLICABLE,,ARM4,Y
S0173,10,chills,N,1,97,127,NOT APPLICABLE,,ARM4,Y
S0173,11,sensory_neuropathy,N,2,97,127,NOT APPLICABLE,,ARM4,Y
S0173,12,hemoglobin_normal_12_16_gm,N,2,107,127,NOT APPLICABLE,,ARM4,Y
S0173,13,neuropathy:_sensory,N,1,109,127,NOT APPLICABLE,,ARM4,Y
S0174,1,anemia,N,2,3,4,NOT APPLICABLE,,ARM3,Y
S0174,2,nausea,N,2,26,27,NOT APPLICABLE,,ARM3,Y
S0174,3,hiccough,N,2,41,42,NOT APPLICABLE,,ARM3,Y
S0174,4,hematuria,N,1,44,45,NOT APPLICABLE,,ARM3,Y
S0175,1,dyspnea,N,1,4,5,no_modification,DM004,ARM1,Y
S0175,2,dizziness,N,2,4,5,no_modification,DM004,ARM1,Y
S0175,3,arthralgia,N,2,15,16,no_modification,DM004,ARM1,Y
S0175,4,dysuria,N,1,16,17,no_modification,DM004,ARM1,Y
S0175,5,rash_erythematous_macules_or_papules,N,1,18,19,no_modification,DM004,ARM1,Y
S0175,6,pain,N,1,22,23,no_modification,DM004,ARM1,Y
S0175,7,nasal_congestion_finding,N,2,26,27,no_modification,DM004,ARM1,Y
S0175,8,hypoalbuminemia,N,2,32,33,no_modification,DM004,ARM1,Y
S0175,9,vomiting,N,2,34,35,no_modification,DM004,ARM1,Y
S0175,10,depression_dominant,N,1,45,46,no_modification,DM004,ARM1,Y
S0175,11,dysgeusia,N,2,56,57,no_modification,DM004,ARM1,Y
S0175,12,maculopapular_lesion,N,1,56,57,no_modification,DM004,ARM1,Y
S0175,13,blood_creatinine_increased,N,1,64,65,no_modification,DM004,ARM1,Y
S0175,14,hyperphosphatemia,N,2,70,71,no_modification,DM004,ARM1,Y
S0175,15,abdominal_pain,N,2,89,127,NOT APPLICABLE,,ARM1,Y
S0175,16,nausea,N,2,98,127,NOT APPLICABLE,,ARM1,Y
S0175,17,hypertension_variable,N,2,103,127,NOT APPLICABLE,,ARM1,Y
S0176,1,anemia,N,1,3,4,no_modification,DM004,ARM1,Y
S0176,2,dry_skin,N,2,8,9,no_modification,DM004,ARM1,Y
S0176,3,thrombocytopenia,N,2,37,38,no_modification,DM004,ARM1,Y
S0176,4,creatinine_increased,N,1,45,46,no_modification,DM004,ARM1,Y
S0176,5,palmar_plantar_erythrodysesthesia_syndrome,N,1,46,47,hold;no_modification,DM004;DM035,ARM1,Y
S0176,6,nausea,N,1,78,79,no_modification,DM004,ARM1,Y
S0176,7,peripheral_edema,N,1,87,127,NOT APPLICABLE,,ARM1,Y
S0176,8,pain,N,2,90,127,NOT APPLICABLE,,ARM1,Y
S0176,9,diarrhea,N,2,93,127,NOT APPLICABLE,,ARM1,Y
S0176,10,"neoplasms_benign,_malignant_and_unspecified_(incl_cysts_and_polyps)_-_other,_specify",Y,3,103,190,NOT APPLICABLE,,ARM1,Y
S0177,1,diarrhea,N,2,8,9,hold,DM026,ARM3,Y
S0177,2,dizziness,N,1,9,10,NOT APPLICABLE,,ARM3,Y
S0177,3,hypertension_variable,N,2,32,33,NOT APPLICABLE,,ARM3,Y
S0177,4,hemoglobin_normal_12_16_gm,N,1,33,34,NOT APPLICABLE,,ARM3,Y
S0177,5,pain,N,2,42,43,NOT APPLICABLE,,ARM3,Y
S0177,6,dry_skin,N,2,50,51,NOT APPLICABLE,,ARM3,Y
S0177,7,sensory_neuropathy,N,1,79,80,NOT APPLICABLE,,ARM3,Y
S0177,8,nausea,N,2,80,81,NOT APPLICABLE,,ARM3,Y
S0177,9,thrombocytopenia,N,1,81,82,NOT APPLICABLE,,ARM3,Y
S0177,10,anemia,N,2,83,84,NOT APPLICABLE,,ARM3,Y
S0177,11,myalgia,N,1,84,127,NOT APPLICABLE,,ARM3,Y
S0177,12,palmar_plantar_erythrodysesthesia_syndrome,N,2,97,127,NOT APPLICABLE,,ARM3,Y
S0177,13,creatinine_increased,N,2,109,127,NOT APPLICABLE,,ARM3,Y
S0178,1,event,N,2,7,8,no_modification,DM004,ARM1,Y
S0178,2,hypoalbuminemia,N,2,20,21,no_modification,DM004,ARM1,Y
S0178,3,increased_frequency_of_micturition,N,2,36,37,no_modification,DM004,ARM1,Y
S0178,4,vomiting,N,2,39,40,no_modification,DM004,ARM1,Y
S0178,5,hyperphosphatemia,N,2,49,50,no_modification,DM004,ARM1,Y
S0178,6,hypertension_variable,N,1,55,56,no_modification,DM004,ARM1,Y
S0178,7,arthralgia,N,1,57,58,no_modification,DM004,ARM1,Y
S0178,8,sepsis,Y,3,72,74,NOT APPLICABLE,,ARM1,Y
S0178,9,dysuria,N,2,81,82,no_modification,DM004,ARM1,Y
S0178,10,dyspnea,N,1,83,84,no_modification,DM004,ARM1,Y
S0178,11,creatinine_increased,N,2,91,127,NOT APPLICABLE,,ARM1,Y
S0178,12,dyspepsia,N,1,95,127,NOT APPLICABLE,,ARM1,Y
S0178,13,hypocalcemia,N,1,107,127,NOT APPLICABLE,,ARM1,Y
S0178,14,nausea,N,2,110,127,NOT APPLICABLE,,ARM1,Y
S0179,1,dysuria,N,1,3,4,NOT APPLICABLE,,ARM3,Y
S0179,2,arthralgia,N,1,5,6,NOT APPLICABLE,,ARM3,Y
S0179,3,fever,N,2,6,7,NOT APPLICABLE,,ARM3,Y
S0179,4,hematuria,N,2,9,10,NOT APPLICABLE,,ARM3,Y
S0179,5,anorexia,N,1,26,27,NOT APPLICABLE,,ARM3,Y
S0179,6,dyspepsia,N,1,31,32,NOT APPLICABLE,,ARM3,Y
S0179,7,pain_in_limb,N,1,39,40,NOT APPLICABLE,,ARM3,Y
S0179,8,anemia,N,2,44,45,NOT APPLICABLE,,ARM3,Y
S0179,9,depression_dominant,N,1,49,50,NOT APPLICABLE,,ARM3,Y
S0179,10,hypoalbuminemia,N,1,52,53,NOT APPLICABLE,,ARM3,Y
S0179,11,hypocalcemia,N,2,78,79,NOT APPLICABLE,,ARM3,Y
S0179,12,hyperphosphatemia,N,1,80,81,NOT APPLICABLE,,ARM3,Y
S0179,13,nasal_congestion_finding,N,2,94,127,NOT APPLICABLE,,ARM3,Y
S0179,14,hypertension_variable,N,1,95,127,NOT APPLICABLE,,ARM3,Y
S0179,15,dyspnea,N,1,101,127,NOT APPLICABLE,,ARM3,Y
S0179,16,hyperkalemia,N,1,108,127,NOT APPLICABLE,,ARM3,Y
S0180,1,hypokalemia,N,1,22,23,NOT APPLICABLE,,ARM4,Y
S0180,2,hypoalbuminemia,N,1,41,42,NOT APPLICABLE,,ARM4,Y
S0180,3,anemia,N,1,57,58,NOT APPLICABLE,,ARM4,Y
S0180,4,nausea,N,1,81,82,NOT APPLICABLE,,ARM4,Y
S0180,5,coughing,N,2,85,127,NOT APPLICABLE,,ARM4,Y
S0180,6,decrease_in_appetite,N,2,112,127,NOT APPLICABLE,,ARM4,Y
S0180,7,hyperkalemia,N,2,114,127,NOT APPLICABLE,,ARM4,Y
S0181,1,aspartate_aminotransferase_increased,N,1,12,13,NOT APPLICABLE,,ARM3,Y
S0181,2,rash_erythematous_macules_or_papules,N,1,32,33,NOT APPLICABLE,,ARM3,Y
S0181,3,vomiting,N,2,42,43,NOT APPLICABLE,,ARM3,Y
S0181,4,back_pain,N,1,46,47,NOT APPLICABLE,,ARM3,Y
S0181,5,fever,Y,3,52,54,NOT APPLICABLE,,ARM3,Y
S0181,6,decreased_platelet_count,N,1,64,65,NOT APPLICABLE,,ARM3,Y
S0181,7,constipation,N,2,66,67,NOT APPLICABLE,,ARM3,Y
S0181,8,nausea,N,1,75,76,NOT APPLICABLE,,ARM3,Y
S0182,1,anemia,N,1,4,5,NOT APPLICABLE,,ARM3,Y
S0182,2,asthenia,N,2,8,9,NOT APPLICABLE,,ARM3,Y
S0182,3,dizziness,N,2,18,19,NOT APPLICABLE,,ARM3,Y
S0182,4,decreased_platelet_count,N,1,52,53,NOT APPLICABLE,,ARM3,Y
S0182,5,constipation,N,2,72,73,NOT APPLICABLE,,ARM3,Y
S0182,6,vomiting,N,1,93,127,NOT APPLICABLE,,ARM3,Y
S0182,7,sleeplessness,N,2,96,127,NOT APPLICABLE,,ARM3,Y
S0182,8,rash_erythematous_macules_or_papules,N,1,114,127,NOT APPLICABLE,,ARM3,Y
S0183,1,thrombocytopenia,N,2,17,18,no_modification,DM004,ARM1,Y
S0183,2,hypertension_variable,N,2,17,18,no_modification,DM004,ARM1,Y
S0183,3,fatigue,Y,3,17,19,NOT APPLICABLE,,ARM1,Y
S0183,4,dry_skin,N,2,33,34,no_modification,DM004,ARM1,Y
S0183,5,anemia,N,1,53,54,no_modification,DM004,ARM1,Y
S0183,6,anemia,Y,3,53,55,NOT APPLICABLE,,ARM1,Y
S0183,7,fatigue,N,2,54,55,no_modification,DM004,ARM1,Y
S0183,8,neuropathy:_sensory,N,1,63,64,no_modification,DM004,ARM1,Y
S0183,9,pain,N,2,81,82,NOT APPLICABLE,,ARM1,Y
S0183,10,back_pain,N,2,90,127,NOT APPLICABLE,,ARM1,Y
S0184,1,diarrhea,N,2,8,9,hold;no_modification,DM004;DM026,ARM1,Y
S0184,2,dizziness,N,2,19,20,no_modification,DM004,ARM1,Y
S0184,3,palmar_plantar_erythrodysesthesia_syndrome,N,1,22,23,hold;no_modification,DM004;DM035,ARM1,Y
S0184,4,dyspnea,N,1,42,43,no_modification,DM004,ARM1,Y
S0184,5,aspartate_aminotransferase_increased,N,1,44,45,no_modification,DM004,ARM1,Y
S0184,6,diarrhea,N,2,55,56,hold;no_modification,DM004;DM026,ARM1,Y
S0184,7,coughing,N,2,60,61,no_modification,DM004,ARM1,Y
S0184,8,hemoglobin_normal_12_16_gm,N,2,70,71,NOT APPLICABLE,,ARM1,Y
S0184,9,hypertension_variable,N,1,85,127,NOT APPLICABLE,,ARM1,Y
S0184,10,anorexia,N,1,86,127,NOT APPLICABLE,,ARM1,Y
S0184,11,pain,N,1,88,127,NOT APPLICABLE,,ARM1,Y
S0184,12,anemia,N,2,92,127,NOT APPLICABLE,,ARM1,Y
S0184,13,hypocalcemia,N,1,92,127,NOT APPLICABLE,,ARM1,Y
S0185,1,headache,N,1,4,5,NOT APPLICABLE,,ARM4,Y
S0185,2,hypoalbuminemia,N,2,5,6,NOT APPLICABLE,,ARM4,Y
S0185,3,dyspepsia,N,2,5,6,NOT APPLICABLE,,ARM4,Y
S0185,4,diarrhea,N,2,9,10,hold,DM026,ARM4,Y
S0185,5,other serious adverse events (not individually predicted),Y,3,13,15,NOT APPLICABLE,,ARM4,Y
S0185,6,coughing,N,1,19,20,NOT APPLICABLE,,ARM4,Y
S0185,7,dry_skin,N,1,20,21,NOT APPLICABLE,,ARM4,Y
S0185,8,nasal_congestion_finding,N,1,22,23,NOT APPLICABLE,,ARM4,Y
S0185,9,arthralgia,N,2,30,31,NOT APPLICABLE,,ARM4,Y
S0185,10,myalgia,N,2,37,38,NOT APPLICABLE,,ARM4,Y
S0185,11,event,N,1,40,41,NOT APPLICABLE,,ARM4,Y
S0185,12,increased_frequency_of_micturition,N,1,43,44,NOT APPLICABLE,,ARM4,Y
S0185,13,decrease_in_appetite,N,1,46,47,NOT APPLICABLE,,ARM4,Y
S0185,14,pruritus,N,1,56,57,NOT APPLICABLE,,ARM4,Y
S0185,15,pain_in_limb,N,1,59,60,NOT APPLICABLE,,ARM4,Y
S0185,16,sleeplessness,N,2,64,65,NOT APPLICABLE,,ARM4,Y
S0185,17,dehydration,N,2,64,65,NOT APPLICABLE,,ARM4,Y
S0185,18,dysuria,N,2,65,66,NOT APPLICABLE,,ARM4,Y
S0185,19,pain,N,1,69,70,NOT APPLICABLE,,ARM4,Y
S0185,20,abdominal_pain,N,2,73,74,NOT APPLICABLE,,ARM4,Y
S0185,21,hypomagnesemia,N,2,75,76,NOT APPLICABLE,,ARM4,Y
S0186,1,anemia,Y,3,15,17,NOT APPLICABLE,,ARM2,Y
S0186,2,peripheral_edema,N,2,34,35,no_modification,DM004,ARM2,Y
S0186,3,constipation,N,2,38,39,no_modification,DM004,ARM2,Y
S0186,4,thrombocytopenia,N,1,38,39,no_modification,DM004,ARM2,Y
S0186,5,creatinine_increased,N,1,43,44,no_modification,DM004,ARM2,Y
S0186,6,aspartate_aminotransferase_increased,N,1,52,53,no_modification,DM004,ARM2,Y
S0186,7,chills,N,1,53,54,no_modification,DM004,ARM2,Y
S0186,8,alanine_aminotransferase_increased,N,2,62,63,no_modification,DM004,ARM2,Y
S0186,9,hypomagnesemia,N,1,64,65,no_modification,DM004,ARM2,Y
S0186,10,diarrhea,N,1,65,66,no_modification,DM004,ARM2,Y
S0186,11,palmar_plantar_erythrodysesthesia_syndrome,N,2,69,70,no_modification,DM004,ARM2,Y
S0186,12,hypertension_variable,N,1,70,71,no_modification,DM004,ARM2,Y
S0186,13,hemoglobin_normal_12_16_gm,N,2,78,79,no_modification,DM004,ARM2,Y
S0186,14,pain,N,1,89,127,NOT APPLICABLE,,ARM2,Y
S0186,15,anemia,N,2,112,127,NOT APPLICABLE,,ARM2,Y
S0187,1,decreased_platelet_count,Y,3,4,6,NOT APPLICABLE,,ARM1,Y
S0187,2,increased_frequency_of_micturition,N,1,7,8,no_modification,DM004,ARM1,Y
S0187,3,hyperkalemia,N,1,10,11,no_modification,DM004,ARM1,Y
S0187,4,hematuria,N,2,22,23,no_modification,DM004,ARM1,Y
S0187,5,dysgeusia,N,1,22,23,no_modification,DM004,ARM1,Y
S0187,6,alanine_aminotransferase_increased,Y,3,27,29,discontinue_agent,DM029,ARM1,Y
S0187,7,fatigue,N,2,30,31,no_modification,DM004,ARM1,Y
S0187,8,fever,Y,3,44,46,NOT APPLICABLE,,ARM1,Y
S0187,9,decrease_in_appetite,N,2,46,47,no_modification,DM004,ARM1,Y
S0187,10,anorexia,N,2,47,48,no_modification,DM004,ARM1,Y
S0187,11,alanine_aminotransferase_increased,N,2,58,59,no_modification,DM004,ARM1,Y
S0187,12,hypertension_variable,N,2,60,61,no_modification,DM004,ARM1,Y
S0187,13,anemia,N,1,86,127,NOT APPLICABLE,,ARM1,Y
S0187,14,sepsis,Y,3,86,190,NOT APPLICABLE,,ARM1,Y
S0187,15,nausea,N,1,89,127,NOT APPLICABLE,,ARM1,Y
S0187,16,acute_kidney_injury,Y,3,91,190,NOT APPLICABLE,,ARM1,Y
S0187,17,hypokalemia,N,2,96,127,NOT APPLICABLE,,ARM1,Y
S0187,18,urinary_tract_infection,N,2,100,127,NOT APPLICABLE,,ARM1,Y
S0187,19,hypoalbuminemia,N,1,106,127,NOT APPLICABLE,,ARM1,Y
S0188,1,anemia,N,2,14,15,NOT APPLICABLE,,ARM4,Y
S0188,2,hematuria,N,1,24,25,NOT APPLICABLE,,ARM4,Y
S0189,1,dizziness,N,2,10,11,no_modification,DM004,ARM1,Y
S0189,2,fatigue,N,1,19,20,no_modification,DM004,ARM1,Y
S0189,3,anemia,N,1,19,20,no_modification,DM004,ARM1,Y
S0189,4,pruritus,N,2,21,22,no_modification,DM004,ARM1,Y
S0189,5,hematuria,N,2,38,39,NOT APPLICABLE,,ARM1,Y
S0189,6,fever,N,2,39,40,NOT APPLICABLE,,ARM1,Y
S0189,7,hypertension_variable,N,2,42,43,NOT APPLICABLE,,ARM1,Y
S0189,8,decreased_platelet_count,N,1,43,44,NOT APPLICABLE,,ARM1,Y
S0189,9,decrease_in_appetite,N,1,53,54,NOT APPLICABLE,,ARM1,Y
S0189,10,hyponatremia,N,1,53,54,NOT APPLICABLE,,ARM1,Y
S0190,1,myalgia,N,1,1,2,NOT APPLICABLE,,ARM3,Y
S0190,2,back_pain,N,2,8,9,NOT APPLICABLE,,ARM3,Y
S0190,3,fever,N,2,10,11,NOT APPLICABLE,,ARM3,Y
S0190,4,other serious adverse events (not individually predicted),Y,3,10,12,NOT APPLICABLE,,ARM3,Y
S0190,5,arthralgia,N,1,14,15,NOT APPLICABLE,,ARM3,Y
S0190,6,hypertension_variable,N,2,18,19,NOT APPLICABLE,,ARM3,Y
S0190,7,hypothyroidism,N,2,23,24,no_modification,DM034,ARM3,Y
S0190,8,dyspnea,N,1,28,29,NOT APPLICABLE,,ARM3,Y
S0190,9,hypokalemia,N,1,31,32,NOT APPLICABLE,,ARM3,Y
S0190,10,hypomagnesemia,N,1,44,45,NOT APPLICABLE,,ARM3,Y
S0190,11,dyspepsia,N,2,48,49,NOT APPLICABLE,,ARM3,Y
S0190,12,dizziness,N,1,55,56,NOT APPLICABLE,,ARM3,Y
S0190,13,decrease_in_appetite,N,1,56,57,NOT APPLICABLE,,ARM3,Y
S0190,14,hypocalcemia,N,1,60,61,NOT APPLICABLE,,ARM3,Y
S0190,15,anorexia,N,2,61,62,NOT APPLICABLE,,ARM3,Y
S0190,16,pain_in_limb,N,1,62,63,NOT APPLICABLE,,ARM3,Y
S0190,17,pruritus,N,1,75,76,NOT APPLICABLE,,ARM3,Y
S0190,18,hematuria,N,2,81,82,NOT APPLICABLE,,ARM3,Y
S0190,19,constipation,N,2,82,83,NOT APPLICABLE,,ARM3,Y
S0190,20,hyperphosphatemia,N,1,85,127,NOT APPLICABLE,,ARM3,Y
S0190,21,hypoalbuminemia,N,1,91,127,NOT APPLICABLE,,ARM3,Y
S0190,22,nasal_congestion_finding,N,1,96,127,NOT APPLICABLE,,ARM3,Y
S0191,1,anemia,Y,3,8,10,NOT APPLICABLE,,ARM3,Y
S0191,2,pain,N,1,9,10,NOT APPLICABLE,,ARM3,Y
S0191,3,hyperglycemia,N,1,27,28,NOT APPLICABLE,,ARM3,Y
S0191,4,chills,N,1,41,42,NOT APPLICABLE,,ARM3,Y
S0191,5,thrombocytopenia,N,1,48,49,NOT APPLICABLE,,ARM3,Y
S0191,6,sensory_neuropathy,N,2,63,64,NOT APPLICABLE,,ARM3,Y
S0191,7,headache,N,1,69,70,NOT APPLICABLE,,ARM3,Y
S0191,8,diarrhea,N,1,76,77,NOT APPLICABLE,,ARM3,Y
S0191,9,hemoglobin_normal_12_16_gm,N,2,77,78,NOT APPLICABLE,,ARM3,Y
S0191,10,anemia,N,2,79,80,NOT APPLICABLE,,ARM3,Y
S0191,11,dizziness,N,1,79,80,NOT APPLICABLE,,ARM3,Y
S0191,12,neuropathy:_sensory,N,1,87,127,NOT APPLICABLE,,ARM3,Y
S0191,13,constipation,N,2,92,127,NOT APPLICABLE,,ARM3,Y
S0191,14,hypophosphatemia,N,2,99,127,NOT APPLICABLE,,ARM3,Y
S0191,15,palmar_plantar_erythrodysesthesia_syndrome,N,2,104,127,NOT APPLICABLE,,ARM3,Y
S0192,1,hematuria,N,1,2,3,NOT APPLICABLE,,ARM3,Y
S0192,2,hypocalcemia,N,2,8,9,NOT APPLICABLE,,ARM3,Y
S0192,3,nasal_congestion_finding,N,1,17,18,NOT APPLICABLE,,ARM3,Y
S0192,4,hypertension_variable,N,1,21,22,NOT APPLICABLE,,ARM3,Y
S0192,5,maculopapular_lesion,N,2,31,32,NOT APPLICABLE,,ARM3,Y
S0192,6,decrease_in_appetite,N,1,40,41,NOT APPLICABLE,,ARM3,Y
S0192,7,hypoalbuminemia,N,1,41,42,NOT APPLICABLE,,ARM3,Y
S0192,8,event,N,1,42,43,NOT APPLICABLE,,ARM3,Y
S0192,9,anemia,N,1,49,50,NOT APPLICABLE,,ARM3,Y
S0192,10,dysuria,N,1,55,56,NOT APPLICABLE,,ARM3,Y
S0192,11,hypothyroidism,N,2,58,59,no_modification,DM034,ARM3,Y
S0192,12,other serious adverse events (not individually predicted),Y,3,61,63,NOT APPLICABLE,,ARM3,Y
S0192,13,hypomagnesemia,N,2,63,64,NOT APPLICABLE,,ARM3,Y
S0192,14,creatinine_increased,N,2,71,72,NOT APPLICABLE,,ARM3,Y
S0192,15,hyperphosphatemia,N,2,92,127,NOT APPLICABLE,,ARM3,Y
S0192,16,dizziness,N,1,94,127,NOT APPLICABLE,,ARM3,Y
S0193,1,dysgeusia,N,2,2,3,no_modification,DM004,ARM1,Y
S0193,2,headache,N,1,26,27,no_modification,DM004,ARM1,Y
S0193,3,diarrhea,N,1,35,36,no_modification,DM004,ARM1,Y
S0193,4,dyspepsia,N,2,46,47,no_modification,DM004,ARM1,Y
S0193,5,hemoglobin_normal_12_16_gm,N,1,52,53,no_modification,DM004,ARM1,Y
S0193,6,hypertension_variable,N,2,53,54,no_modification,DM004,ARM1,Y
S0193,7,anorexia,N,1,56,57,no_modification,DM004,ARM1,Y
S0193,8,constipation,N,1,57,58,no_modification,DM004,ARM1,Y
S0193,9,anemia,N,2,60,61,no_modification,DM004,ARM1,Y
S0193,10,sleeplessness,N,1,68,69,NOT APPLICABLE,,ARM1,Y
S0193,11,pain,N,2,69,70,NOT APPLICABLE,,ARM1,Y
S0193,12,dry_skin,N,2,87,127,NOT APPLICABLE,,ARM1,Y
S0193,13,chills,N,1,89,127,NOT APPLICABLE,,ARM1,Y
S0194,1,abdominal_pain,N,1,24,25,no_modification,DM004,ARM1,Y
S0194,2,fever,Y,3,39,41,NOT APPLICABLE,,ARM1,Y
S0194,3,hypertension_variable,N,2,47,48,no_modification,DM004,ARM1,Y
S0194,4,hypokalemia,N,2,52,53,no_modification,DM004,ARM1,Y
S0194,5,hiccough,N,1,53,54,no_modification,DM004,ARM1,Y
S0194,6,dizziness,N,1,58,59,no_modification,DM004,ARM1,Y
S0194,7,decreased_platelet_count,N,1,63,64,no_modification,DM004,ARM1,Y
S0194,8,anemia,N,1,83,84,no_modification,DM004,ARM1,Y
S0194,9,fever,N,1,100,127,NOT APPLICABLE,,ARM1,Y
S0194,10,nausea,N,1,102,127,NOT APPLICABLE,,ARM1,Y
S0194,11,proteinuria,N,1,104,127,NOT APPLICABLE,,ARM1,Y
S0195,1,nausea,N,2,13,14,NOT APPLICABLE,,ARM4,Y
S0195,2,neutrophil_count_decreased,N,2,25,26,NOT APPLICABLE,,ARM4,Y
S0195,3,decreased_platelet_count,N,2,27,28,NOT APPLICABLE,,ARM4,Y
S0195,4,anemia,N,2,79,80,NOT APPLICABLE,,ARM4,Y
S0195,5,vomiting,N,1,80,81,NOT APPLICABLE,,ARM4,Y
S0196,1,hematuria,Y,3,2,4,NOT APPLICABLE,,ARM1,Y
S0196,2,hyperphosphatemia,N,2,18,19,no_modification,DM004,ARM1,Y
S0196,3,blood_creatinine_increased,N,2,41,42,no_modification,DM004,ARM1,Y
S0196,4,nasal_congestion_finding,N,2,43,44,no_modification,DM004,ARM1,Y
S0196,5,event,N,1,49,50,no_modification,DM004,ARM1,Y
S0196,6,hypocalcemia,N,1,53,54,no_modification,DM004,ARM1,Y
S0196,7,hypokalemia,N,1,64,65,no_modification,DM004,ARM1,Y
S0196,8,nausea,N,2,87,127,NOT APPLICABLE,,ARM1,Y
S0196,9,rash_erythematous_macules_or_papules,N,1,89,127,NOT APPLICABLE,,ARM1,Y
S0196,10,dyspnea,N,1,102,127,NOT APPLICABLE,,ARM1,Y
S0196,11,arthralgia,N,2,103,127,NOT APPLICABLE,,ARM1,Y
S0196,12,hyperkalemia,N,1,106,127,NOT APPLICABLE,,ARM1,Y
S0196,13,hypoalbuminemia,N,1,108,127,NOT APPLICABLE,,ARM1,Y
S0196,14,abdominal_pain,N,1,114,127,NOT APPLICABLE,,ARM1,Y
S0197,1,hypertension_variable,N,2,1,2,no_modification,DM004,ARM2,Y
S0197,2,anemia,N,2,52,53,no_modification,DM004,ARM2,Y
S0197,3,chills,N,2,61,62,no_modification,DM004,ARM2,Y
S0197,4,creatinine_increased,N,1,83,84,no_modification,DM004,ARM2,Y
S0197,5,aspartate_aminotransferase_increased,N,1,84,127,no_modification,DM004,ARM2,Y
S0197,6,sensory_neuropathy,N,1,95,127,NOT APPLICABLE,,ARM2,Y
S0197,7,pain,N,1,104,127,NOT APPLICABLE,,ARM2,Y
S0198,1,nausea,N,1,11,12,NOT APPLICABLE,,ARM3,Y
S0198,2,dyspepsia,N,1,22,23,NOT APPLICABLE,,ARM3,Y
S0198,3,hypocalcemia,N,1,28,29,NOT APPLICABLE,,ARM3,Y
S0198,4,rash_erythematous_macules_or_papules,N,2,30,31,NOT APPLICABLE,,ARM3,Y
S0198,5,arthralgia,N,1,36,37,NOT APPLICABLE,,ARM3,Y
S0198,6,fever,N,1,45,46,NOT APPLICABLE,,ARM3,Y
S0198,7,hematuria,N,1,50,51,NOT APPLICABLE,,ARM3,Y
S0198,8,hypertension_variable,N,1,50,51,NOT APPLICABLE,,ARM3,Y
S0198,9,maculopapular_lesion,N,2,57,58,NOT APPLICABLE,,ARM3,Y
S0198,10,stomatitis,N,2,60,61,NOT APPLICABLE,,ARM3,Y
S0198,11,dyspnea,N,2,66,67,NOT APPLICABLE,,ARM3,Y
S0198,12,anorexia,N,1,73,74,NOT APPLICABLE,,ARM3,Y
S0198,13,back_pain,N,1,74,75,NOT APPLICABLE,,ARM3,Y
S0198,14,hypoalbuminemia,N,1,90,127,NOT APPLICABLE,,ARM3,Y
S0199,1,hypocalcemia,N,2,6,7,no_modification,DM004,ARM2,Y
S0199,2,arthralgia,N,1,15,16,no_modification,DM004,ARM2,Y
S0199,3,constipation,N,2,17,18,no_modification,DM004,ARM2,Y
S0199,4,nausea,N,1,21,22,no_modification,DM004,ARM2,Y
S0199,5,proteinuria,N,1,33,34,no_modification,DM004,ARM2,Y
S0199,6,alanine_aminotransferase_increased,N,2,43,44,no_modification,DM004,ARM2,Y
S0199,7,headache,N,1,44,45,no_modification,DM004,ARM2,Y
S0199,8,dyspnea,N,2,49,50,no_modification,DM004,ARM2,Y
S0199,9,blood_creatinine_increased,N,2,51,52,no_modification,DM004,ARM2,Y
S0199,10,sensory_neuropathy,N,2,61,62,no_modification,DM004,ARM2,Y
S0199,11,hypertension_variable,N,2,64,65,no_modification,DM004,ARM2,Y
S0199,12,neutrophil_count_decreased,N,1,65,66,NOT APPLICABLE,,ARM2,Y
S0199,13,hypoalbuminemia,N,1,69,70,NOT APPLICABLE,,ARM2,Y
S0199,14,creatinine_increased,N,1,70,71,NOT APPLICABLE,,ARM2,Y
S0199,15,anemia,N,1,77,78,NOT APPLICABLE,,ARM2,Y
S0199,16,decrease_in_appetite,N,1,82,83,NOT APPLICABLE,,ARM2,Y
S0199,17,nasal_congestion_finding,N,1,84,127,NOT APPLICABLE,,ARM2,Y
S0200,1,coughing,N,1,16,17,no_modification,DM004,ARM2,Y
S0200,2,nausea,N,1,19,20,no_modification,DM004,ARM2,Y
S0200,3,arthralgia,N,1,28,29,no_modification,DM004,ARM2,Y
S0200,4,hypothyroidism,N,2,55,56,NOT APPLICABLE,,ARM2,Y
S0200,5,constipation,N,2,59,60,NOT APPLICABLE,,ARM2,Y
S0200,6,hypomagnesemia,N,1,59,60,NOT APPLICABLE,,ARM2,Y
S0200,7,decreased_platelet_count,N,1,65,66,NOT APPLICABLE,,ARM2,Y
S0201,1,blood_creatinine_increased,N,2,13,14,NOT APPLICABLE,,ARM3,Y
S0201,2,back_pain,N,1,14,15,NOT APPLICABLE,,ARM3,Y
S0201,3,dyspnea,N,1,15,16,NOT APPLICABLE,,ARM3,Y
S0201,4,hypoalbuminemia,N,2,26,27,NOT APPLICABLE,,ARM3,Y
S0201,5,anemia,N,2,28,29,NOT APPLICABLE,,ARM3,Y
S0201,6,proteinuria,N,2,31,32,NOT APPLICABLE,,ARM3,Y
S0201,7,hypocalcemia,N,1,39,40,NOT APPLICABLE,,ARM3,Y
S0201,8,gastroesophageal_reflux_disease,N,1,43,44,NOT APPLICABLE,,ARM3,Y
S0201,9,anemia,Y,3,45,47,NOT APPLICABLE,,ARM3,Y
S0201,10,fever,N,1,54,55,NOT APPLICABLE,,ARM3,Y
S0201,11,hyperphosphatemia,N,2,58,59,NOT APPLICABLE,,ARM3,Y
S0201,12,nasal_congestion_finding,N,2,60,61,NOT APPLICABLE,,ARM3,Y
S0201,13,arthralgia,N,1,64,65,NOT APPLICABLE,,ARM3,Y
S0201,14,constipation,N,2,69,70,NOT APPLICABLE,,ARM3,Y
S0201,15,hypertension_variable,N,1,69,70,NOT APPLICABLE,,ARM3,Y
S0201,16,TEAE with a fatal outcome,N,2,77,78,NOT APPLICABLE,,ARM3,Y
S0202,1,thrombocytopenia,N,1,11,12,NOT APPLICABLE,,ARM3,Y
S0202,2,decreased_platelet_count,N,1,15,16,NOT APPLICABLE,,ARM3,Y
S0202,3,headache,N,2,67,68,NOT APPLICABLE,,ARM3,Y
S0202,4,nausea,N,1,79,80,NOT APPLICABLE,,ARM3,Y
S0202,5,anemia,N,1,94,127,NOT APPLICABLE,,ARM3,Y
S0203,1,hematuria,N,1,9,10,NOT APPLICABLE,,ARM3,Y
S0203,2,sepsis,Y,3,28,30,NOT APPLICABLE,,ARM3,Y
S0203,3,fatigue,N,1,51,52,NOT APPLICABLE,,ARM3,Y
S0203,4,hypertension_variable,N,2,63,64,NOT APPLICABLE,,ARM3,Y
S0203,5,anemia,N,2,65,66,NOT APPLICABLE,,ARM3,Y
S0203,6,anorexia,N,2,69,70,NOT APPLICABLE,,ARM3,Y
S0203,7,decreased_platelet_count,Y,3,70,72,NOT APPLICABLE,,ARM3,Y
S0203,8,pruritus,N,1,72,73,NOT APPLICABLE,,ARM3,Y
S0203,9,hiccough,N,2,75,76,NOT APPLICABLE,,ARM3,Y
S0203,10,nausea,N,1,85,127,NOT APPLICABLE,,ARM3,Y
S0203,11,hyperkalemia,N,1,87,127,NOT APPLICABLE,,ARM3,Y
S0203,12,fever,N,1,110,127,NOT APPLICABLE,,ARM3,Y
S0203,13,vomiting,N,2,110,127,NOT APPLICABLE,,ARM3,Y
S0204,1,dry_skin,N,1,9,10,NOT APPLICABLE,,ARM3,Y
S0204,2,pain,N,2,14,15,NOT APPLICABLE,,ARM3,Y
S0204,3,hyperglycemia,N,1,22,23,NOT APPLICABLE,,ARM3,Y
S0204,4,constipation,N,2,25,26,NOT APPLICABLE,,ARM3,Y
S0204,5,depression_dominant,N,2,39,40,NOT APPLICABLE,,ARM3,Y
S0204,6,creatinine_increased,N,2,42,43,NOT APPLICABLE,,ARM3,Y
S0204,7,hypertension_variable,N,2,51,52,NOT APPLICABLE,,ARM3,Y
S0204,8,arthralgia,N,1,66,67,NOT APPLICABLE,,ARM3,Y
S0204,9,anemia,N,2,68,69,NOT APPLICABLE,,ARM3,Y
S0204,10,palmar_plantar_erythrodysesthesia_syndrome,N,1,102,127,NOT APPLICABLE,,ARM3,Y
S0204,11,coughing,N,2,103,127,NOT APPLICABLE,,ARM3,Y
S0204,12,nausea,N,2,104,127,NOT APPLICABLE,,ARM3,Y
S0204,13,leukopenia,N,1,105,127,NOT APPLICABLE,,ARM3,Y
S0205,1,headache,N,2,2,3,NOT APPLICABLE,,ARM3,Y
S0205,2,hypoalbuminemia,N,2,7,8,NOT APPLICABLE,,ARM3,Y
S0205,3,decrease_in_appetite,N,1,17,18,NOT APPLICABLE,,ARM3,Y
S0205,4,abdominal_pain,N,1,24,25,NOT APPLICABLE,,ARM3,Y
S0205,5,hypocalcemia,N,2,25,26,NOT APPLICABLE,,ARM3,Y
S0205,6,hyponatremia,N,1,40,41,NOT APPLICABLE,,ARM3,Y
S0205,7,hypertension_variable,N,2,51,52,NOT APPLICABLE,,ARM3,Y
S0205,8,dysuria,N,1,51,52,NOT APPLICABLE,,ARM3,Y
S0205,9,nasal_congestion_finding,N,1,53,54,NOT APPLICABLE,,ARM3,Y
S0205,10,hypomagnesemia,N,1,65,66,NOT APPLICABLE,,ARM3,Y
S0205,11,arthralgia,N,2,72,73,NOT APPLICABLE,,ARM3,Y
S0205,12,rash_erythematous_macules_or_papules,N,2,75,76,NOT APPLICABLE,,ARM3,Y
S0205,13,nausea,N,2,77,78,NOT APPLICABLE,,ARM3,Y
S0205,14,hyperphosphatemia,N,2,77,78,NOT APPLICABLE,,ARM3,Y
S0205,15,creatinine_increased,N,2,91,127,NOT APPLICABLE,,ARM3,Y
S0205,16,blood_creatinine_increased,N,1,92,127,NOT APPLICABLE,,ARM3,Y
S0205,17,other serious adverse events (not individually predicted),Y,3,93,190,NOT APPLICABLE,,ARM3,Y
S0206,1,hyponatremia,N,2,18,19,no_modification,DM004,ARM2,Y
S0206,2,dysuria,N,2,23,24,no_modification,DM004,ARM2,Y
S0206,3,hyperphosphatemia,N,2,37,38,no_modification,DM004,ARM2,Y
S0206,4,arthralgia,N,1,39,40,no_modification,DM004,ARM2,Y
S0206,5,anorexia,N,1,39,40,no_modification,DM004,ARM2,Y
S0206,6,event,N,2,39,40,no_modification,DM004,ARM2,Y
S0206,7,fever,Y,3,44,46,NOT APPLICABLE,,ARM2,Y
S0206,8,hypertension_variable,N,1,60,61,no_modification,DM004,ARM2,Y
S0206,9,hypomagnesemia,N,1,67,68,no_modification,DM004,ARM2,Y
S0206,10,pain_in_limb,N,1,69,70,no_modification,DM004,ARM2,Y
S0206,11,pruritus,N,1,75,76,no_modification,DM004,ARM2,Y
S0206,12,decrease_in_appetite,N,2,75,76,no_modification,DM004,ARM2,Y
S0206,13,hyperkalemia,N,2,76,77,no_modification,DM004,ARM2,Y
S0206,14,anemia,N,1,81,82,no_modification,DM004,ARM2,Y
S0206,15,hypoalbuminemia,N,1,82,83,no_modification,DM004,ARM2,Y
S0206,16,creatinine_increased,N,2,90,127,NOT APPLICABLE,,ARM2,Y
S0206,17,urinary_tract_infection,N,2,106,127,NOT APPLICABLE,,ARM2,Y
S0206,18,hypocalcemia,N,2,106,127,NOT APPLICABLE,,ARM2,Y
S0206,19,nausea,N,2,114,127,NOT APPLICABLE,,ARM2,Y
S0207,1,hiccough,N,1,13,14,NOT APPLICABLE,,ARM4,Y
S0207,2,coughing,N,1,26,27,NOT APPLICABLE,,ARM4,Y
S0207,3,anemia,N,2,39,40,NOT APPLICABLE,,ARM4,Y
S0207,4,nausea,N,2,62,63,NOT APPLICABLE,,ARM4,Y
S0207,5,hematuria,N,2,62,63,NOT APPLICABLE,,ARM4,Y
S0207,6,dysgeusia,N,1,64,65,NOT APPLICABLE,,ARM4,Y
S0207,7,constipation,N,1,69,70,NOT APPLICABLE,,ARM4,Y
S0207,8,weight_loss,N,1,72,73,NOT APPLICABLE,,ARM4,Y
S0207,9,anorexia,N,2,90,127,NOT APPLICABLE,,ARM4,Y
S0208,1,anemia,N,1,6,7,NOT APPLICABLE,,ARM4,Y
S0208,2,abdominal_pain,N,2,27,28,NOT APPLICABLE,,ARM4,Y
S0208,3,"neoplasms_benign,_malignant_and_unspecified_(incl_cysts_and_polyps)_-_other,_specify",Y,3,38,40,NOT APPLICABLE,,ARM4,Y
S0208,4,diarrhea,N,2,45,46,hold,DM026,ARM4,Y
S0208,5,hyperglycemia,N,2,50,51,NOT APPLICABLE,,ARM4,Y
S0208,6,headache,N,2,60,61,NOT APPLICABLE,,ARM4,Y
S0208,7,thrombocytopenia,N,1,61,62,NOT APPLICABLE,,ARM4,Y
S0208,8,sensory_neuropathy,N,1,75,76,NOT APPLICABLE,,ARM4,Y
S0208,9,palmar_plantar_erythrodysesthesia_syndrome,N,1,76,77,hold,DM035,ARM4,Y
S0208,10,creatinine_increased,N,1,76,77,NOT APPLICABLE,,ARM4,Y
S0208,11,pain,N,2,81,82,NOT APPLICABLE,,ARM4,Y
S0208,12,hematuria,N,2,83,84,NOT APPLICABLE,,ARM4,Y
S0208,13,hypertension_variable,N,2,84,127,NOT APPLICABLE,,ARM4,Y
S0208,14,peripheral_edema,N,2,92,127,NOT APPLICABLE,,ARM4,Y
S0209,1,decrease_in_appetite,N,1,2,3,NOT APPLICABLE,,ARM3,Y
S0209,2,hypocalcemia,N,2,2,3,NOT APPLICABLE,,ARM3,Y
S0209,3,dyspepsia,N,1,17,18,NOT APPLICABLE,,ARM3,Y
S0209,4,upper_respiratory_infections,N,2,30,31,NOT APPLICABLE,,ARM3,Y
S0209,5,hypoalbuminemia,N,1,31,32,NOT APPLICABLE,,ARM3,Y
S0209,6,hyperphosphatemia,N,1,39,40,NOT APPLICABLE,,ARM3,Y
S0209,7,nasal_congestion_finding,N,2,43,44,NOT APPLICABLE,,ARM3,Y
S0209,8,fever,N,2,49,50,NOT APPLICABLE,,ARM3,Y
S0209,9,sleeplessness,N,2,63,64,NOT APPLICABLE,,ARM3,Y
S0209,10,arthralgia,N,2,84,127,NOT APPLICABLE,,ARM3,Y
S0209,11,event,N,1,88,127,NOT APPLICABLE,,ARM3,Y
S0209,12,dry_skin,N,1,92,127,NOT APPLICABLE,,ARM3,Y
S0209,13,neutrophil_count_decreased,N,2,95,127,NOT APPLICABLE,,ARM3,Y
S0209,14,dyspnea,N,1,97,127,NOT APPLICABLE,,ARM3,Y
S0209,15,other serious adverse events (not individually predicted),Y,3,99,190,NOT APPLICABLE,,ARM3,Y
S0209,16,hypertension_variable,N,1,101,127,NOT APPLICABLE,,ARM3,Y
S0209,17,hyponatremia,N,2,101,127,NOT APPLICABLE,,ARM3,Y
S0209,18,hypokalemia,N,2,102,127,NOT APPLICABLE,,ARM3,Y
S0209,19,dysuria,N,2,108,127,NOT APPLICABLE,,ARM3,Y
S0210,1,headache,N,2,8,9,no_modification,DM004,ARM2,Y
S0210,2,chills,N,1,19,20,no_modification,DM004,ARM2,Y
S0210,3,pain_in_limb,N,2,49,50,no_modification,DM004,ARM2,Y
S0210,4,pain,N,2,52,53,no_modification,DM004,ARM2,Y
S0210,5,sensory_neuropathy,N,2,57,58,no_modification,DM004,ARM2,Y
S0210,6,constipation,N,2,70,71,no_modification,DM004,ARM2,Y
S0210,7,diarrhea,N,1,73,74,no_modification,DM004,ARM2,Y
S0210,8,back_pain,N,2,85,127,NOT APPLICABLE,,ARM2,Y
S0210,9,anemia,N,2,96,127,NOT APPLICABLE,,ARM2,Y
S0210,10,anemia,Y,3,98,190,NOT APPLICABLE,,ARM2,Y
S0210,11,palmar_plantar_erythrodysesthesia_syndrome,N,1,109,127,NOT APPLICABLE,,ARM2,Y
S0211,1,abdominal_pain,N,1,30,31,no_modification,DM004,ARM2,Y
S0211,2,vomiting,N,2,55,56,no_modification,DM004,ARM2,Y
S0211,3,headache,N,2,61,62,NOT APPLICABLE,,ARM2,Y
S0211,4,hiccough,N,2,67,68,NOT APPLICABLE,,ARM2,Y
S0211,5,decreased_platelet_count,N,2,70,71,NOT APPLICABLE,,ARM2,Y
S0211,6,aspartate_aminotransferase_increased,N,2,82,83,NOT APPLICABLE,,ARM2,Y
S0211,7,nausea,N,2,86,127,NOT APPLICABLE,,ARM2,Y
S0211,8,peripheral_edema,N,2,86,127,NOT APPLICABLE,,ARM2,Y
S0212,1,chills,N,2,10,11,NOT APPLICABLE,,ARM3,Y
S0212,2,hemoglobin_normal_12_16_gm,N,2,23,24,NOT APPLICABLE,,ARM3,Y
S0212,3,creatinine_increased,N,2,39,40,NOT APPLICABLE,,ARM3,Y
S0212,4,anorexia,N,2,43,44,NOT APPLICABLE,,ARM3,Y
S0212,5,anemia,N,1,50,51,NOT APPLICABLE,,ARM3,Y
S0212,6,alanine_aminotransferase_increased,N,1,53,54,NOT APPLICABLE,,ARM3,Y
S0212,7,nausea,N,2,56,57,NOT APPLICABLE,,ARM3,Y
S0212,8,palmar_plantar_erythrodysesthesia_syndrome,N,1,80,81,hold,DM035,ARM3,Y
S0212,9,pain,N,1,84,127,NOT APPLICABLE,,ARM3,Y
S0212,10,dizziness,N,1,105,127,NOT APPLICABLE,,ARM3,Y
S0212,11,diarrhea,N,1,105,127,NOT APPLICABLE,,ARM3,Y
S0212,12,diarrhea,N,2,106,127,NOT APPLICABLE,,ARM3,Y
S0213,1,constipation,N,2,1,2,NOT APPLICABLE,,ARM4,Y
S0213,2,decrease_in_appetite,N,2,1,2,NOT APPLICABLE,,ARM4,Y
S0213,3,nasal_congestion_finding,N,2,4,5,NOT APPLICABLE,,ARM4,Y
S0213,4,hypomagnesemia,N,2,5,6,NOT APPLICABLE,,ARM4,Y
S0213,5,hypocalcemia,N,2,23,24,NOT APPLICABLE,,ARM4,Y
S0213,6,dehydration,N,2,24,25,NOT APPLICABLE,,ARM4,Y
S0213,7,pruritus,N,1,26,27,NOT APPLICABLE,,ARM4,Y
S0213,8,fever,N,1,27,28,NOT APPLICABLE,,ARM4,Y
S0213,9,proteinuria,N,2,33,34,NOT APPLICABLE,,ARM4,Y
S0213,10,sensory_neuropathy,N,1,44,45,NOT APPLICABLE,,ARM4,Y
S0213,11,oral_pain,N,2,46,47,NOT APPLICABLE,,ARM4,Y
S0213,12,dyspnea,N,1,49,50,NOT APPLICABLE,,ARM4,Y
S0213,13,blood_creatinine_increased,N,1,66,67,NOT APPLICABLE,,ARM4,Y
S0213,14,abdominal_pain,N,2,71,72,NOT APPLICABLE,,ARM4,Y
S0213,15,hypoalbuminemia,N,1,79,80,NOT APPLICABLE,,ARM4,Y
S0213,16,event,N,1,90,127,NOT APPLICABLE,,ARM4,Y
S0213,17,arthralgia,N,1,103,127,NOT APPLICABLE,,ARM4,Y
S0213,18,depression_dominant,N,1,103,127,NOT APPLICABLE,,ARM4,Y
S0214,1,nausea,N,1,30,31,no_modification,DM004,ARM1,Y
S0214,2,pneumonitis,Y,3,33,35,discontinue_agent,DM025,ARM1,Y
S0214,3,vomiting,N,1,43,44,no_modification,DM004,ARM1,Y
S0214,4,anemia,N,1,58,59,no_modification,DM004,ARM1,Y
S0214,5,abdominal_pain,N,1,89,127,NOT APPLICABLE,,ARM1,Y
S0214,6,decreased_platelet_count,N,2,92,127,NOT APPLICABLE,,ARM1,Y
S0214,7,hyperkalemia,N,2,113,127,NOT APPLICABLE,,ARM1,Y
S0215,1,dizziness,N,1,1,2,NOT APPLICABLE,,ARM4,Y
S0215,2,nausea,N,1,8,9,NOT APPLICABLE,,ARM4,Y
S0215,3,anemia,N,2,15,16,NOT APPLICABLE,,ARM4,Y
S0215,4,pain,N,2,22,23,NOT APPLICABLE,,ARM4,Y
S0215,5,diarrhea,N,2,26,27,hold,DM026,ARM4,Y
S0215,6,headache,N,2,38,39,NOT APPLICABLE,,ARM4,Y
S0215,7,palmar_plantar_erythrodysesthesia_syndrome,N,2,68,69,hold,DM035,ARM4,Y
S0215,8,chills,N,1,68,69,NOT APPLICABLE,,ARM4,Y
S0215,9,hemoglobin_normal_12_16_gm,N,1,72,73,NOT APPLICABLE,,ARM4,Y
S0215,10,hypomagnesemia,N,2,83,84,NOT APPLICABLE,,ARM4,Y
S0215,11,hypertension_variable,N,1,107,127,NOT APPLICABLE,,ARM4,Y
S0215,12,hematuria,N,2,108,127,NOT APPLICABLE,,ARM4,Y
S0216,1,nasal_congestion_finding,N,2,7,8,no_modification,DM004,ARM1,Y
S0216,2,hematuria,N,2,8,9,no_modification,DM004,ARM1,Y
S0216,3,sleeplessness,N,2,15,16,no_modification,DM004,ARM1,Y
S0216,4,dyspnea,N,2,15,16,no_modification,DM004,ARM1,Y
S0216,5,back_pain,N,2,16,17,no_modification,DM004,ARM1,Y
S0216,6,hyperphosphatemia,N,1,16,17,no_modification,DM004,ARM1,Y
S0216,7,hypoalbuminemia,N,2,17,18,no_modification,DM004,ARM1,Y
S0216,8,arthralgia,N,1,22,23,no_modification,DM004,ARM1,Y
S0216,9,hypertension_variable,N,2,29,30,no_modification,DM004,ARM1,Y
S0216,10,coughing,N,1,30,31,no_modification,DM004,ARM1,Y
S0216,11,dysuria,N,2,43,44,no_modification,DM004,ARM1,Y
S0216,12,decrease_in_appetite,N,2,58,59,no_modification,DM004,ARM1,Y
S0216,13,anorexia,N,2,65,66,NOT APPLICABLE,,ARM1,Y
S0216,14,peripheral_edema,N,2,80,81,NOT APPLICABLE,,ARM1,Y
S0216,15,blood_creatinine_increased,N,1,81,82,NOT APPLICABLE,,ARM1,Y
S0216,16,diarrhea,N,1,85,127,NOT APPLICABLE,,ARM1,Y
S0216,17,nausea,N,2,90,127,NOT APPLICABLE,,ARM1,Y
S0217,1,hyperphosphatemia,N,1,5,6,NOT APPLICABLE,,ARM3,Y
S0217,2,nausea,N,1,13,14,NOT APPLICABLE,,ARM3,Y
S0217,3,hypocalcemia,N,1,14,15,NOT APPLICABLE,,ARM3,Y
S0217,4,dysuria,N,2,15,16,NOT APPLICABLE,,ARM3,Y
S0217,5,anorexia,N,2,19,20,NOT APPLICABLE,,ARM3,Y
S0217,6,nasal_congestion_finding,N,2,20,21,NOT APPLICABLE,,ARM3,Y
S0217,7,hyponatremia,N,2,21,22,NOT APPLICABLE,,ARM3,Y
S0217,8,other serious adverse events (not individually predicted),Y,3,22,24,NOT APPLICABLE,,ARM3,Y
S0217,9,increased_frequency_of_micturition,N,2,29,30,NOT APPLICABLE,,ARM3,Y
S0217,10,pruritus,N,2,37,38,NOT APPLICABLE,,ARM3,Y
S0217,11,vomiting,N,2,38,39,NOT APPLICABLE,,ARM3,Y
S0217,12,hypomagnesemia,N,1,46,47,NOT APPLICABLE,,ARM3,Y
S0217,13,arthralgia,N,2,51,52,NOT APPLICABLE,,ARM3,Y
S0217,14,hyperkalemia,N,2,66,67,NOT APPLICABLE,,ARM3,Y
S0217,15,dyspnea,N,2,74,75,NOT APPLICABLE,,ARM3,Y
S0217,16,decrease_in_appetite,N,1,91,127,NOT APPLICABLE,,ARM3,Y
S0217,17,creatinine_increased,N,1,109,127,NOT APPLICABLE,,ARM3,Y
S0217,18,blood_creatinine_increased,N,2,112,127,NOT APPLICABLE,,ARM3,Y
S0218,1,palmar_plantar_erythrodysesthesia_syndrome,N,1,2,3,no_modification,DM004,ARM2,Y
S0218,2,dysgeusia,N,2,11,12,no_modification,DM004,ARM2,Y
S0218,3,creatinine,N,2,33,34,no_modification,DM004,ARM2,Y
S0218,4,anemia,N,2,36,37,no_modification,DM004,ARM2,Y
S0218,5,hypoalbuminemia,N,1,37,38,no_modification,DM004,ARM2,Y
S0218,6,pain,N,2,44,45,no_modification,DM004,ARM2,Y
S0218,7,neuropathy:_sensory,N,1,50,51,no_modification,DM004,ARM2,Y
S0218,8,chills,N,2,60,61,no_modification,DM004,ARM2,Y
S0218,9,fatigue,N,2,68,69,NOT APPLICABLE,,ARM2,Y
S0218,10,dizziness,N,2,73,74,NOT APPLICABLE,,ARM2,Y
S0218,11,diarrhea,N,2,76,77,NOT APPLICABLE,,ARM2,Y
S0218,12,anorexia,N,2,76,77,NOT APPLICABLE,,ARM2,Y
S0218,13,anemia,Y,3,81,83,NOT APPLICABLE,,ARM2,Y
S0218,14,hemoglobin_normal_12_16_gm,N,2,82,83,NOT APPLICABLE,,ARM2,Y
S0218,15,constipation,N,1,94,127,NOT APPLICABLE,,ARM2,Y
S0219,1,anorexia,N,2,2,3,no_modification,DM004,ARM1,Y
S0219,2,constipation,N,1,7,8,NOT APPLICABLE,,ARM1,Y
S0219,3,pain,N,1,12,13,NOT APPLICABLE,,ARM1,Y
S0219,4,anemia,Y,3,14,16,NOT APPLICABLE,,ARM1,Y
S0219,5,thrombocytopenia,N,2,19,20,NOT APPLICABLE,,ARM1,Y
S0219,6,vomiting,N,1,24,25,NOT APPLICABLE,,ARM1,Y
S0219,7,dizziness,N,2,25,26,NOT APPLICABLE,,ARM1,Y
S0219,8,hypertension_variable,N,1,25,26,NOT APPLICABLE,,ARM1,Y
S0219,9,diarrhea,N,2,27,28,NOT APPLICABLE,,ARM1,Y
S0219,10,palmar_plantar_erythrodysesthesia_syndrome,N,1,29,30,NOT APPLICABLE,,ARM1,Y
S0220,1,hypoalbuminemia,N,1,5,6,no_modification,DM004,ARM2,Y
S0220,2,hypercalcemia,N,2,10,11,no_modification,DM004,ARM2,Y
S0220,3,dizziness,N,2,25,26,no_modification,DM004,ARM2,Y
S0220,4,maculopapular_lesion,N,2,34,35,no_modification,DM004,ARM2,Y
S0220,5,hypomagnesemia,N,2,48,49,no_modification,DM004,ARM2,Y
S0220,6,event,N,2,60,61,no_modification,DM004,ARM2,Y
S0220,7,decrease_in_appetite,N,2,67,68,no_modification,DM004,ARM2,Y
S0220,8,nasal_congestion_finding,N,1,70,71,no_modification,DM004,ARM2,Y
S0220,9,hyponatremia,N,2,72,73,no_modification,DM004,ARM2,Y
S0220,10,gastroesophageal_reflux_disease,N,2,73,74,no_modification,DM004,ARM2,Y
S0220,11,arthralgia,N,2,77,78,no_modification,DM004,ARM2,Y
S0220,12,pain,N,1,79,80,no_modification,DM004,ARM2,Y
S0220,13,anemia,N,1,88,127,NOT APPLICABLE,,ARM2,Y
S0220,14,hematuria,N,2,107,127,NOT APPLICABLE,,ARM2,Y
S0221,1,headache,N,1,9,10,NOT APPLICABLE,,ARM4,Y
S0221,2,vomiting,N,1,16,17,NOT APPLICABLE,,ARM4,Y
S0221,3,constipation,N,1,24,25,NOT APPLICABLE,,ARM4,Y
S0221,4,chills,N,2,29,30,NOT APPLICABLE,,ARM4,Y
S0221,5,anemia,N,2,31,32,NOT APPLICABLE,,ARM4,Y
S0221,6,hemoglobin_normal_12_16_gm,N,1,42,43,NOT APPLICABLE,,ARM4,Y
S0221,7,pain,N,1,53,54,NOT APPLICABLE,,ARM4,Y
S0221,8,hypertension_variable,N,1,55,56,NOT APPLICABLE,,ARM4,Y
S0221,9,creatinine_increased,N,2,91,127,NOT APPLICABLE,,ARM4,Y
S0221,10,diarrhea,N,2,100,127,NOT APPLICABLE,,ARM4,Y
S0221,11,dizziness,N,1,102,127,NOT APPLICABLE,,ARM4,Y
S0222,1,depression_dominant,N,2,1,2,NOT APPLICABLE,,ARM4,Y
S0222,2,pruritus,N,1,7,8,NOT APPLICABLE,,ARM4,Y
S0222,3,arthralgia,N,2,9,10,NOT APPLICABLE,,ARM4,Y
S0222,4,TEAE with a fatal outcome,N,1,12,13,NOT APPLICABLE,,ARM4,Y
S0222,5,creatinine_increased,N,1,13,14,NOT APPLICABLE,,ARM4,Y
S0222,6,decrease_in_appetite,N,1,17,18,NOT APPLICABLE,,ARM4,Y
S0222,7,hyperkalemia,N,2,17,18,NOT APPLICABLE,,ARM4,Y
S0222,8,dysuria,N,2,24,25,NOT APPLICABLE,,ARM4,Y
S0222,9,hypocalcemia,N,2,49,50,NOT APPLICABLE,,ARM4,Y
S0222,10,hypoalbuminemia,N,1,53,54,NOT APPLICABLE,,ARM4,Y
S0222,11,anemia,N,2,54,55,NOT APPLICABLE,,ARM4,Y
S0222,12,hypertension_variable,N,2,58,59,NOT APPLICABLE,,ARM4,Y
S0222,13,hypomagnesemia,N,1,64,65,NOT APPLICABLE,,ARM4,Y
S0222,14,pain_in_limb,N,1,69,70,NOT APPLICABLE,,ARM4,Y
S0222,15,proteinuria,N,1,73,74,NOT APPLICABLE,,ARM4,Y
S0222,16,back_pain,N,2,80,81,NOT APPLICABLE,,ARM4,Y
S0222,17,nasal_congestion_finding,N,1,93,127,NOT APPLICABLE,,ARM4,Y
S0222,18,hyponatremia,N,1,95,127,NOT APPLICABLE,,ARM4,Y
S0222,19,dyspnea,N,1,95,127,NOT APPLICABLE,,ARM4,Y
S0224,1,abdominal_pain,N,1,5,6,no_modification,DM004,ARM2,Y
S0224,2,pneumonia,Y,3,5,7,NOT APPLICABLE,,ARM2,Y
S0224,3,nasal_congestion_finding,N,2,12,13,no_modification,DM004,ARM2,Y
S0224,4,pain,N,2,17,18,no_modification,DM004,ARM2,Y
S0224,5,rash_erythematous_macules_or_papules,N,2,28,29,no_modification,DM004,ARM2,Y
S0224,6,hypoalbuminemia,N,2,31,32,no_modification,DM004,ARM2,Y
S0224,7,fever,N,1,32,33,no_modification,DM004,ARM2,Y
S0224,8,dyspnea,N,1,32,33,no_modification,DM004,ARM2,Y
S0224,9,sleeplessness,N,2,37,38,no_modification,DM004,ARM2,Y
S0224,10,hyperphosphatemia,N,1,37,38,no_modification,DM004,ARM2,Y
S0224,11,nausea,N,1,48,49,no_modification,DM004,ARM2,Y
S0224,12,dysuria,N,2,49,50,no_modification,DM004,ARM2,Y
S0224,13,hypocalcemia,N,2,49,50,no_modification,DM004,ARM2,Y
S0224,14,pruritus,N,1,59,60,no_modification,DM004,ARM2,Y
S0224,15,hypertension_variable,N,1,65,66,NOT APPLICABLE,,ARM2,Y
S0224,16,dyspepsia,N,1,72,73,NOT APPLICABLE,,ARM2,Y
S0224,17,arthralgia,N,1,79,80,NOT APPLICABLE,,ARM2,Y
S0224,18,dehydration,N,1,80,81,NOT APPLICABLE,,ARM2,Y
S0225,1,anemia,N,1,30,31,NOT APPLICABLE,,ARM3,Y
S0225,2,hypoalbuminemia,N,1,50,51,NOT APPLICABLE,,ARM3,Y
S0225,3,thrombocytopenia,N,1,52,53,NOT APPLICABLE,,ARM3,Y
S0225,4,decreased_platelet_count,N,1,93,127,NOT APPLICABLE,,ARM3,Y
S0225,5,hyperglycemia,N,1,103,127,NOT APPLICABLE,,ARM3,Y
S0226,1,urinary_tract_infection,N,2,45,46,no_modification,DM004,ARM2,Y
S0226,2,anemia,N,2,55,56,no_modification,DM004,ARM2,Y
S0226,3,nausea,N,2,69,70,no_modification,DM004,ARM2,Y
S0226,4,anorexia,N,2,79,80,no_modification,DM004,ARM2,Y
S0226,5,dysgeusia,N,1,95,127,NOT APPLICABLE,,ARM2,Y
S0226,6,decrease_in_appetite,N,1,97,127,NOT APPLICABLE,,ARM2,Y
S0226,7,increased_frequency_of_micturition,N,2,99,127,NOT APPLICABLE,,ARM2,Y
S0226,8,hematuria,N,2,109,127,NOT APPLICABLE,,ARM2,Y
S0227,1,anorexia,N,2,9,10,no_modification,DM004,ARM2,Y
S0227,2,pain,N,1,9,10,no_modification,DM004,ARM2,Y
S0227,3,"neoplasms_benign,_malignant_and_unspecified_(incl_cysts_and_polyps)_-_other,_specify",Y,3,11,13,NOT APPLICABLE,,ARM2,Y
S0227,4,chills,N,2,19,20,no_modification,DM004,ARM2,Y
S0227,5,sensory_neuropathy,N,2,28,29,no_modification,DM004,ARM2,Y
S0227,6,constipation,N,2,41,42,no_modification,DM004,ARM2,Y
S0227,7,palmar_plantar_erythrodysesthesia_syndrome,N,2,49,50,no_modification,DM004,ARM2,Y
S0227,8,thrombocytopenia,N,1,52,53,no_modification,DM004,ARM2,Y
S0227,9,diarrhea,N,1,54,55,no_modification,DM004,ARM2,Y
S0227,10,hypomagnesemia,N,1,54,55,no_modification,DM004,ARM2,Y
S0227,11,dizziness,N,1,62,63,no_modification,DM004,ARM2,Y
S0227,12,hyperglycemia,N,1,70,71,no_modification,DM004,ARM2,Y
S0227,13,diarrhea,N,2,81,82,no_modification,DM004,ARM2,Y
S0227,14,anemia,N,2,82,83,no_modification,DM004,ARM2,Y
S0227,15,hemoglobin_normal_12_16_gm,N,1,87,127,NOT APPLICABLE,,ARM2,Y
S0227,16,nausea,N,2,101,127,NOT APPLICABLE,,ARM2,Y
S0227,17,anemia,Y,3,104,190,NOT APPLICABLE,,ARM2,Y
S0228,1,anemia,N,1,10,11,no_modification,DM004,ARM1,Y
S0228,2,thrombocytopenia,N,1,34,35,no_modification,DM004,ARM1,Y
S0228,3,diarrhea,N,2,40,41,hold;no_modification,DM004;DM026,ARM1,Y
S0228,4,creatinine_increased,N,1,49,50,no_modification,DM004,ARM1,Y
S0228,5,chills,N,2,54,55,no_modification,DM004,ARM1,Y
S0228,6,diarrhea,N,1,70,71,NOT APPLICABLE,,ARM1,Y
S0228,7,hemoglobin_normal_12_16_gm,N,2,74,75,NOT APPLICABLE,,ARM1,Y
S0228,8,dry_skin,N,1,75,76,NOT APPLICABLE,,ARM1,Y
S0228,9,pain,N,2,86,127,NOT APPLICABLE,,ARM1,Y
S0229,1,nausea,N,2,2,3,NOT APPLICABLE,,ARM4,Y
S0229,2,hypertension_variable,N,1,13,14,NOT APPLICABLE,,ARM4,Y
S0229,3,hyperkalemia,N,1,50,51,NOT APPLICABLE,,ARM4,Y
S0229,4,increased_frequency_of_micturition,N,1,77,78,NOT APPLICABLE,,ARM4,Y
S0229,5,anemia,N,2,79,80,NOT APPLICABLE,,ARM4,Y
S0230,1,dysuria,N,1,16,17,NOT APPLICABLE,,ARM3,Y
S0230,2,decrease_in_appetite,N,1,27,28,NOT APPLICABLE,,ARM3,Y
S0230,3,rash_erythematous_macules_or_papules,N,1,27,28,NOT APPLICABLE,,ARM3,Y
S0230,4,hypomagnesemia,N,2,34,35,NOT APPLICABLE,,ARM3,Y
S0230,5,hypertension_variable,N,1,49,50,NOT APPLICABLE,,ARM3,Y
S0230,6,event,N,2,52,53,NOT APPLICABLE,,ARM3,Y
S0230,7,hyperphosphatemia,N,1,55,56,NOT APPLICABLE,,ARM3,Y
S0230,8,hypocalcemia,N,2,71,72,NOT APPLICABLE,,ARM3,Y
S0230,9,anorexia,N,2,76,77,NOT APPLICABLE,,ARM3,Y
S0230,10,blood_creatinine_increased,N,1,79,80,NOT APPLICABLE,,ARM3,Y
S0230,11,nausea,N,1,83,84,NOT APPLICABLE,,ARM3,Y
S0230,12,other serious adverse events (not individually predicted),Y,3,86,190,NOT APPLICABLE,,ARM3,Y
S0230,13,hypoalbuminemia,N,2,87,127,NOT APPLICABLE,,ARM3,Y
S0230,14,dyspnea,N,1,89,127,NOT APPLICABLE,,ARM3,Y
S0230,15,creatinine_increased,N,2,100,127,NOT APPLICABLE,,ARM3,Y
S0230,16,diarrhea,N,1,101,127,NOT APPLICABLE,,ARM3,Y
S0230,17,anemia,N,2,104,127,NOT APPLICABLE,,ARM3,Y
S0230,18,arthralgia,N,1,106,127,NOT APPLICABLE,,ARM3,Y
S0230,19,abdominal_pain,N,2,111,127,NOT APPLICABLE,,ARM3,Y
S0231,1,dizziness,N,1,13,14,no_modification,DM004,ARM1,Y
S0231,2,weight_loss,N,1,18,19,no_modification,DM004,ARM1,Y
S0231,3,thrombocytopenia,Y,3,22,24,NOT APPLICABLE,,ARM1,Y
S0231,4,anorexia,N,1,30,31,no_modification,DM004,ARM1,Y
S0231,5,headache,N,1,49,50,no_modification,DM004,ARM1,Y
S0231,6,hypertension_variable,N,2,51,52,no_modification,DM004,ARM1,Y
S0231,7,constipation,N,1,58,59,no_modification,DM004,ARM1,Y
S0231,8,hematuria,N,1,61,62,no_modification,DM004,ARM1,Y
S0231,9,palmar_plantar_erythrodysesthesia_syndrome,N,2,66,67,NOT APPLICABLE,,ARM1,Y
S0231,10,diarrhea,N,1,67,68,NOT APPLICABLE,,ARM1,Y
S0231,11,thrombocytopenia,N,1,71,72,NOT APPLICABLE,,ARM1,Y
S0231,12,anemia,N,2,76,77,NOT APPLICABLE,,ARM1,Y
S0231,13,fatigue,N,1,85,127,NOT APPLICABLE,,ARM1,Y
S0231,14,myalgia,N,2,91,127,NOT APPLICABLE,,ARM1,Y
S0232,1,nausea,N,2,12,13,no_modification,DM004,ARM1,Y
S0232,2,hematuria,N,2,27,28,NOT APPLICABLE,,ARM1,Y
S0233,1,vomiting,N,1,11,12,no_modification,DM004,ARM1,Y
S0233,2,constipation,N,2,28,29,no_modification,DM004,ARM1,Y
S0233,3,nausea,N,2,32,33,no_modification,DM004,ARM1,Y
S0233,4,anemia,N,2,52,53,no_modification,DM004,ARM1,Y
S0233,5,thrombocytopenia,N,2,58,59,no_modification,DM004,ARM1,Y
S0233,6,abdominal_pain,N,1,64,65,no_modification,DM004,ARM1,Y
S0233,7,sleeplessness,N,2,66,67,NOT APPLICABLE,,ARM1,Y
S0233,8,decreased_platelet_count,N,2,78,79,NOT APPLICABLE,,ARM1,Y
S0233,9,fever,N,2,85,127,NOT APPLICABLE,,ARM1,Y
S0233,10,anorexia,N,1,90,127,NOT APPLICABLE,,ARM1,Y
S0234,1,chills,N,1,4,5,NOT APPLICABLE,,ARM4,Y
S0234,2,pain,N,2,6,7,NOT APPLICABLE,,ARM4,Y
S0234,3,thrombocytopenia,N,2,9,10,NOT APPLICABLE,,ARM4,Y
S0234,4,hypoalbuminemia,N,2,16,17,NOT APPLICABLE,,ARM4,Y
S0234,5,dyspnea,N,1,18,19,NOT APPLICABLE,,ARM4,Y
S0234,6,anemia,N,2,23,24,NOT APPLICABLE,,ARM4,Y
S0234,7,decrease_in_appetite,N,1,47,48,NOT APPLICABLE,,ARM4,Y
S0234,8,nausea,N,2,82,83,NOT APPLICABLE,,ARM4,Y
S0234,9,sensory_neuropathy,N,1,90,127,NOT APPLICABLE,,ARM4,Y
S0234,10,creatinine_increased,N,2,92,127,NOT APPLICABLE,,ARM4,Y
S0235,1,back_pain,N,1,10,11,NOT APPLICABLE,,ARM3,Y
S0235,2,hematuria,N,2,17,18,NOT APPLICABLE,,ARM3,Y
S0235,3,nausea,N,2,24,25,NOT APPLICABLE,,ARM3,Y
S0235,4,chills,N,1,32,33,NOT APPLICABLE,,ARM3,Y
S0235,5,pain,N,1,39,40,NOT APPLICABLE,,ARM3,Y
S0235,6,constipation,N,2,44,45,NOT APPLICABLE,,ARM3,Y
S0235,7,creatinine_increased,N,2,58,59,NOT APPLICABLE,,ARM3,Y
S0235,8,dehydration,N,2,59,60,NOT APPLICABLE,,ARM3,Y
S0235,9,palmar_plantar_erythrodysesthesia_syndrome,N,2,62,63,hold,DM035,ARM3,Y
S0235,10,thrombocytopenia,N,2,63,64,NOT APPLICABLE,,ARM3,Y
S0235,11,hypomagnesemia,N,2,70,71,NOT APPLICABLE,,ARM3,Y
S0235,12,fever,N,2,72,73,NOT APPLICABLE,,ARM3,Y
S0235,13,hemoglobin_normal_12_16_gm,N,2,82,83,NOT APPLICABLE,,ARM3,Y
S0236,1,headache,N,2,33,34,NOT APPLICABLE,,ARM3,Y
S0236,2,vomiting,N,1,38,39,NOT APPLICABLE,,ARM3,Y
S0236,3,aspartate_aminotransferase_increased,N,1,44,45,NOT APPLICABLE,,ARM3,Y
S0236,4,hypothyroidism,N,2,70,71,no_modification,DM034,ARM3,Y
S0236,5,decreased_platelet_count,N,2,75,76,NOT APPLICABLE,,ARM3,Y
S0236,6,blood_creatinine_increased,N,2,77,78,NOT APPLICABLE,,ARM3,Y
S0236,7,nausea,N,2,101,127,NOT APPLICABLE,,ARM3,Y
S0237,1,dysgeusia,N,2,1,2,NOT APPLICABLE,,ARM4,Y
S0237,2,blood_creatinine_increased,N,1,11,12,NOT APPLICABLE,,ARM4,Y
S0237,3,hypertension_variable,N,2,14,15,NOT APPLICABLE,,ARM4,Y
S0237,4,creatinine_increased,N,2,34,35,NOT APPLICABLE,,ARM4,Y
S0237,5,dysuria,N,1,39,40,NOT APPLICABLE,,ARM4,Y
S0237,6,dehydration,N,2,39,40,NOT APPLICABLE,,ARM4,Y
S0237,7,proteinuria,N,1,54,55,NOT APPLICABLE,,ARM4,Y
S0237,8,hypoalbuminemia,N,2,77,78,NOT APPLICABLE,,ARM4,Y
S0237,9,nasal_congestion_finding,N,1,91,127,NOT APPLICABLE,,ARM4,Y
S0237,10,hypocalcemia,N,2,92,127,NOT APPLICABLE,,ARM4,Y
S0237,11,sleeplessness,N,2,97,127,NOT APPLICABLE,,ARM4,Y
S0237,12,pain,N,2,98,127,NOT APPLICABLE,,ARM4,Y
S0237,13,dyspnea,N,2,100,127,NOT APPLICABLE,,ARM4,Y
S0238,1,anemia,N,1,56,57,no_modification,DM004,ARM1,Y
S0239,1,anemia,N,2,3,4,NOT APPLICABLE,,ARM3,Y
S0239,2,hiccough,N,1,3,4,NOT APPLICABLE,,ARM3,Y
S0239,3,asthenia,N,2,21,22,NOT APPLICABLE,,ARM3,Y
S0239,4,vomiting,N,2,25,26,NOT APPLICABLE,,ARM3,Y
S0239,5,headache,N,2,43,44,NOT APPLICABLE,,ARM3,Y
S0239,6,hypothyroidism,N,2,72,73,NOT APPLICABLE,,ARM3,Y
S0239,7,decreased_platelet_count,N,1,91,127,NOT APPLICABLE,,ARM3,Y
S0240,1,hiccough,N,1,11,12,no_modification,DM004,ARM1,Y
S0240,2,increased_frequency_of_micturition,N,2,35,36,no_modification,DM004,ARM1,Y
S0240,3,hypoalbuminemia,N,2,65,66,no_modification,DM004,ARM1,Y
S0240,4,dyspnea,N,2,76,77,no_modification,DM004,ARM1,Y
S0240,5,anemia,N,2,78,79,no_modification,DM004,ARM1,Y
S0241,1,palmar_plantar_erythrodysesthesia_syndrome,N,2,9,10,hold,DM035,ARM3,Y
S0241,2,diarrhea,N,1,15,16,NOT APPLICABLE,,ARM3,Y
S0241,3,constipation,N,1,15,16,NOT APPLICABLE,,ARM3,Y
S0241,4,anemia,N,1,42,43,NOT APPLICABLE,,ARM3,Y
S0241,5,coughing,N,2,48,49,NOT APPLICABLE,,ARM3,Y
S0241,6,pain,N,1,67,68,NOT APPLICABLE,,ARM3,Y
S0241,7,hematuria,N,1,78,79,NOT APPLICABLE,,ARM3,Y
S0241,8,thrombocytopenia,N,2,79,80,NOT APPLICABLE,,ARM3,Y
S0241,9,chills,N,1,81,82,NOT APPLICABLE,,ARM3,Y
S0241,10,hemoglobin_normal_12_16_gm,N,2,91,127,NOT APPLICABLE,,ARM3,Y
S0241,11,"neoplasms_benign,_malignant_and_unspecified_(incl_cysts_and_polyps)_-_other,_specify",Y,3,109,190,NOT APPLICABLE,,ARM3,Y
S0242,1,"neoplasms_benign,_malignant_and_unspecified_(incl_cysts_and_polyps)_-_other,_specify",Y,3,26,28,NOT APPLICABLE,,ARM3,Y
S0242,2,anemia,N,1,27,28,NOT APPLICABLE,,ARM3,Y
S0242,3,hyperglycemia,N,1,28,29,NOT APPLICABLE,,ARM3,Y
S0242,4,pain,N,2,31,32,NOT APPLICABLE,,ARM3,Y
S0242,5,dizziness,N,2,52,53,NOT APPLICABLE,,ARM3,Y
S0242,6,dysgeusia,N,2,57,58,NOT APPLICABLE,,ARM3,Y
S0242,7,constipation,N,1,87,127,NOT APPLICABLE,,ARM3,Y
S0242,8,sensory_neuropathy,N,1,87,127,NOT APPLICABLE,,ARM3,Y
S0242,9,diarrhea,N,2,97,127,NOT APPLICABLE,,ARM3,Y
S0242,10,hemoglobin_normal_12_16_gm,N,2,105,127,NOT APPLICABLE,,ARM3,Y
S0242,11,chills,N,1,111,127,NOT APPLICABLE,,ARM3,Y
S0243,1,back_pain,N,2,5,6,no_modification,DM004,ARM1,Y
S0243,2,hypertension_variable,N,1,8,9,no_modification,DM004,ARM1,Y
S0243,3,hyperphosphatemia,N,2,8,9,no_modification,DM004,ARM1,Y
S0243,4,dizziness,N,2,16,17,no_modification,DM004,ARM1,Y
S0243,5,nausea,N,1,54,55,no_modification,DM004,ARM1,Y
S0243,6,hypoalbuminemia,N,2,60,61,no_modification,DM004,ARM1,Y
S0243,7,nasal_congestion_finding,N,2,61,62,no_modification,DM004,ARM1,Y
S0243,8,dyspnea,N,1,64,65,no_modification,DM004,ARM1,Y
S0243,9,decrease_in_appetite,N,2,72,73,no_modification,DM004,ARM1,Y
S0243,10,hypocalcemia,N,2,84,127,no_modification,DM004,ARM1,Y
S0243,11,pruritus,N,1,98,127,NOT APPLICABLE,,ARM1,Y
S0243,12,dry_skin,N,1,103,127,NOT APPLICABLE,,ARM1,Y
S0243,13,arthralgia,N,1,112,127,NOT APPLICABLE,,ARM1,Y
S0244,1,nausea,N,1,6,7,NOT APPLICABLE,,ARM3,Y
S0244,2,hypomagnesemia,N,2,33,34,NOT APPLICABLE,,ARM3,Y
S0244,3,aspartate_aminotransferase_increased,N,2,48,49,hold,DM028,ARM3,Y
S0244,4,arthralgia,N,1,49,50,NOT APPLICABLE,,ARM3,Y
S0244,5,other serious adverse events (not individually predicted),Y,3,63,65,NOT APPLICABLE,,ARM3,Y
S0244,6,hypertension_variable,N,2,66,67,NOT APPLICABLE,,ARM3,Y
S0244,7,urinary_tract_infection,Y,3,67,69,NOT APPLICABLE,,ARM3,Y
S0244,8,hyperglycemia,N,2,71,72,NOT APPLICABLE,,ARM3,Y
S0244,9,pain_in_limb,N,1,78,79,NOT APPLICABLE,,ARM3,Y
S0244,10,hypoalbuminemia,N,1,86,127,NOT APPLICABLE,,ARM3,Y
S0244,11,hypocalcemia,N,2,86,127,NOT APPLICABLE,,ARM3,Y
S0244,12,dyspnea,N,2,88,127,NOT APPLICABLE,,ARM3,Y
S0244,13,nasal_congestion_finding,N,1,88,127,NOT APPLICABLE,,ARM3,Y
S0244,14,pruritus,N,2,95,127,NOT APPLICABLE,,ARM3,Y
S0244,15,decrease_in_appetite,N,2,99,127,NOT APPLICABLE,,ARM3,Y
S0245,1,hypertension_variable,N,2,8,9,NOT APPLICABLE,,ARM4,Y
S0245,2,chills,N,1,10,11,NOT APPLICABLE,,ARM4,Y
S0245,3,diarrhea,N,1,21,22,NOT APPLICABLE,,ARM4,Y
S0245,4,vomiting,N,2,30,31,NOT APPLICABLE,,ARM4,Y
S0245,5,anemia,N,1,47,48,NOT APPLICABLE,,ARM4,Y
S0245,6,pain,N,1,69,70,NOT APPLICABLE,,ARM4,Y
S0245,7,palmar_plantar_erythrodysesthesia_syndrome,N,1,76,77,hold,DM035,ARM4,Y
S0245,8,thrombocytopenia,N,1,76,77,NOT APPLICABLE,,ARM4,Y
S0245,9,constipation,N,2,86,127,NOT APPLICABLE,,ARM4,Y
S0245,10,headache,N,2,110,127,NOT APPLICABLE,,ARM4,Y
S0245,11,hemoglobin_normal_12_16_gm,N,1,113,127,NOT APPLICABLE,,ARM4,Y
S0246,1,coughing,N,2,2,3,no_modification,DM004,ARM1,Y
S0246,2,neutrophil_count_decreased,N,2,13,14,no_modification,DM004,ARM1,Y
S0246,3,decreased_platelet_count,N,2,15,16,no_modification,DM004,ARM1,Y
S0246,4,hypokalemia,N,2,18,19,no_modification,DM004,ARM1,Y
S0246,5,hypothyroidism,N,1,21,22,no_modification,DM004,ARM1,Y
S0246,6,nausea,N,2,22,23,no_modification,DM004,ARM1,Y
S0246,7,sleeplessness,N,2,33,34,no_modification,DM004,ARM1,Y
S0246,8,hypomagnesemia,N,2,71,72,no_modification,DM004,ARM1,Y
S0248,1,chills,N,1,4,5,NOT APPLICABLE,,ARM4,Y
S0248,2,dry_skin,N,1,8,9,NOT APPLICABLE,,ARM4,Y
S0248,3,diarrhea,N,2,25,26,hold,DM026,ARM4,Y
S0248,4,palmar_plantar_erythrodysesthesia_syndrome,N,2,58,59,hold,DM035,ARM4,Y
S0248,5,neuropathy:_sensory,N,2,65,66,NOT APPLICABLE,,ARM4,Y
S0248,6,anemia,N,1,69,70,NOT APPLICABLE,,ARM4,Y
S0248,7,dyspepsia,N,2,71,72,NOT APPLICABLE,,ARM4,Y
S0248,8,sensory_neuropathy,N,2,76,77,NOT APPLICABLE,,ARM4,Y
S0248,9,dizziness,N,1,78,79,NOT APPLICABLE,,ARM4,Y
S0248,10,coughing,N,2,98,127,NOT APPLICABLE,,ARM4,Y
S0248,11,pain,N,1,102,127,NOT APPLICABLE,,ARM4,Y
S0249,1,decrease_in_appetite,N,2,20,21,NOT APPLICABLE,,ARM3,Y
S0249,2,vomiting,N,2,22,23,NOT APPLICABLE,,ARM3,Y
S0249,3,abdominal_pain,N,1,29,30,NOT APPLICABLE,,ARM3,Y
S0249,4,nausea,N,2,32,33,NOT APPLICABLE,,ARM3,Y
S0249,5,anemia,N,2,44,45,NOT APPLICABLE,,ARM3,Y
S0249,6,rash_erythematous_macules_or_papules,N,1,61,62,NOT APPLICABLE,,ARM3,Y
S0249,7,anorexia,N,2,76,77,NOT APPLICABLE,,ARM3,Y
S0249,8,coughing,N,2,109,127,NOT APPLICABLE,,ARM3,Y
S0249,9,hematuria,N,2,114,127,NOT APPLICABLE,,ARM3,Y
S0251,1,other serious adverse events (not individually predicted),Y,3,3,5,NOT APPLICABLE,,ARM3,Y
S0251,2,hypoalbuminemia,N,1,6,7,NOT APPLICABLE,,ARM3,Y
S0251,3,rash_erythematous_macules_or_papules,N,2,8,9,NOT APPLICABLE,,ARM3,Y
S0251,4,dyspnea,N,2,10,11,NOT APPLICABLE,,ARM3,Y
S0251,5,nausea,N,2,11,12,NOT APPLICABLE,,ARM3,Y
S0251,6,event,N,2,11,12,NOT APPLICABLE,,ARM3,Y
S0251,7,nasal_congestion_finding,N,1,13,14,NOT APPLICABLE,,ARM3,Y
S0251,8,sleeplessness,N,2,24,25,NOT APPLICABLE,,ARM3,Y
S0251,9,hypocalcemia,N,1,26,27,NOT APPLICABLE,,ARM3,Y
S0251,10,hypertension_variable,N,2,27,28,NOT APPLICABLE,,ARM3,Y
S0251,11,arthralgia,N,1,28,29,NOT APPLICABLE,,ARM3,Y
S0251,12,dysuria,N,2,31,32,NOT APPLICABLE,,ARM3,Y
S0252,1,urinary_tract_infection,N,1,4,5,NOT APPLICABLE,,ARM4,Y
S0252,2,hiccough,N,1,6,7,NOT APPLICABLE,,ARM4,Y
S0252,3,alanine_aminotransferase_increased,Y,3,45,47,discontinue_agent,DM029,ARM4,Y
S0252,4,anemia,N,2,62,63,NOT APPLICABLE,,ARM4,Y
S0252,5,decrease_in_appetite,N,2,68,69,NOT APPLICABLE,,ARM4,Y
S0252,6,hypoalbuminemia,N,1,83,84,NOT APPLICABLE,,ARM4,Y
S0253,1,nausea,N,1,4,5,no_modification,DM004,ARM1,Y
S0253,2,hiccough,N,1,4,5,no_modification,DM004,ARM1,Y
S0253,3,hematuria,N,2,9,10,no_modification,DM004,ARM1,Y
S0253,4,vomiting,N,1,19,20,no_modification,DM004,ARM1,Y
S0253,5,anorexia,N,2,30,31,no_modification,DM004,ARM1,Y
S0253,6,decrease_in_appetite,N,2,37,38,no_modification,DM004,ARM1,Y
S0253,7,anemia,N,1,41,42,no_modification,DM004,ARM1,Y
S0253,8,dysgeusia,N,1,68,69,no_modification,DM004,ARM1,Y
S0253,9,decreased_platelet_count,N,2,97,127,NOT APPLICABLE,,ARM1,Y
S0254,1,dizziness,N,1,5,6,NOT APPLICABLE,,ARM3,Y
S0254,2,hypothyroidism,N,1,6,7,NOT APPLICABLE,,ARM3,Y
S0254,3,hematuria,N,1,7,8,NOT APPLICABLE,,ARM3,Y
S0254,4,anemia,N,2,17,18,NOT APPLICABLE,,ARM3,Y
S0254,5,neutrophil_count_decreased,N,2,30,31,NOT APPLICABLE,,ARM3,Y
S0254,6,peripheral_edema,N,2,36,37,NOT APPLICABLE,,ARM3,Y
S0254,7,hyperglycemia,N,1,41,42,NOT APPLICABLE,,ARM3,Y
S0254,8,vomiting,N,1,42,43,NOT APPLICABLE,,ARM3,Y
S0254,9,decreased_platelet_count,N,2,55,56,NOT APPLICABLE,,ARM3,Y
S0254,10,abdominal_pain,N,2,69,70,NOT APPLICABLE,,ARM3,Y
S0254,11,nausea,N,2,83,84,NOT APPLICABLE,,ARM3,Y
S0254,12,coughing,N,1,93,127,NOT APPLICABLE,,ARM3,Y
S0256,1,death_finding,Y,3,4,6,NOT APPLICABLE,,ARM2,Y
S0256,2,rash_erythematous_macules_or_papules,N,2,9,10,no_modification,DM004,ARM2,Y
S0256,3,proteinuria,N,1,11,12,no_modification,DM004,ARM2,Y
S0256,4,decrease_in_appetite,N,1,12,13,no_modification,DM004,ARM2,Y
S0256,5,sleeplessness,N,2,17,18,no_modification,DM004,ARM2,Y
S0256,6,hypertension_variable,N,1,18,19,no_modification,DM004,ARM2,Y
S0256,7,hyperphosphatemia,N,1,22,23,no_modification,DM004,ARM2,Y
S0256,8,fatigue,N,1,24,25,no_modification,DM004,ARM2,Y
S0256,9,hyperkalemia,N,2,25,26,no_modification,DM004,ARM2,Y
S0256,10,hypocalcemia,N,1,28,29,no_modification,DM004,ARM2,Y
S0256,11,anorexia,N,1,33,34,no_modification,DM004,ARM2,Y
S0256,12,back_pain,N,1,38,39,no_modification,DM004,ARM2,Y
S0256,13,hypoalbuminemia,N,1,38,39,no_modification,DM004,ARM2,Y
S0256,14,hypomagnesemia,N,1,53,54,no_modification,DM004,ARM2,Y
S0256,15,hypokalemia,N,1,60,61,no_modification,DM004,ARM2,Y
S0256,16,dysuria,N,1,67,68,NOT APPLICABLE,,ARM2,Y
S0256,17,nasal_congestion_finding,N,2,74,75,NOT APPLICABLE,,ARM2,Y
S0256,18,anemia,Y,3,78,80,NOT APPLICABLE,,ARM2,Y
S0256,19,hyponatremia,N,2,84,127,NOT APPLICABLE,,ARM2,Y
S0256,20,pruritus,N,1,87,127,NOT APPLICABLE,,ARM2,Y
S0257,1,decreased_platelet_count,N,1,4,5,no_modification,DM004,ARM1,Y
S0257,2,fever,N,2,9,10,no_modification,DM004,ARM1,Y
S0257,3,anemia,N,1,29,30,no_modification,DM004,ARM1,Y
S0257,4,other serious adverse events (not individually predicted),Y,3,36,38,NOT APPLICABLE,,ARM1,Y
S0257,5,constipation,N,1,41,42,NOT APPLICABLE,,ARM1,Y
S0257,6,anorexia,N,2,47,48,NOT APPLICABLE,,ARM1,Y
S0258,1,anorexia,N,2,38,39,no_modification,DM004,ARM2,Y
S0258,2,nausea,N,1,80,81,no_modification,DM004,ARM2,Y
S0258,3,vomiting,N,2,89,127,NOT APPLICABLE,,ARM2,Y
S0258,4,anemia,N,2,105,127,NOT APPLICABLE,,ARM2,Y
S0259,1,event,N,2,9,10,NOT APPLICABLE,,ARM4,Y
S0259,2,hypomagnesemia,N,1,14,15,NOT APPLICABLE,,ARM4,Y
S0259,3,decrease_in_appetite,N,1,19,20,NOT APPLICABLE,,ARM4,Y
S0259,4,dyspnea,N,2,34,35,NOT APPLICABLE,,ARM4,Y
S0259,5,anemia,N,1,46,47,NOT APPLICABLE,,ARM4,Y
S0259,6,hypertension_variable,N,1,46,47,NOT APPLICABLE,,ARM4,Y
S0259,7,hyponatremia,N,2,47,48,NOT APPLICABLE,,ARM4,Y
S0259,8,back_pain,N,2,60,61,NOT APPLICABLE,,ARM4,Y
S0259,9,fever,N,1,61,62,NOT APPLICABLE,,ARM4,Y
S0259,10,hyperkalemia,N,1,61,62,NOT APPLICABLE,,ARM4,Y
S0259,11,nasal_congestion_finding,N,2,70,71,NOT APPLICABLE,,ARM4,Y
S0259,12,nausea,N,1,73,74,NOT APPLICABLE,,ARM4,Y
S0259,13,hypoalbuminemia,N,1,75,76,NOT APPLICABLE,,ARM4,Y
S0259,14,diarrhea,N,1,77,78,NOT APPLICABLE,,ARM4,Y
S0259,15,arthralgia,N,1,83,84,NOT APPLICABLE,,ARM4,Y
S0259,16,creatinine_increased,N,1,84,127,NOT APPLICABLE,,ARM4,Y
S0259,17,weight_loss,N,2,92,127,NOT APPLICABLE,,ARM4,Y
S0259,18,hypocalcemia,N,1,92,127,NOT APPLICABLE,,ARM4,Y
S0259,19,other serious adverse events (not individually predicted),Y,3,95,190,NOT APPLICABLE,,ARM4,Y
S0259,20,hyperphosphatemia,N,1,106,127,NOT APPLICABLE,,ARM4,Y
S0259,21,anorexia,N,2,114,127,NOT APPLICABLE,,ARM4,Y
S0260,1,neutrophil_count_decreased,N,2,14,15,NOT APPLICABLE,,ARM3,Y
S0260,2,thrombocytopenia,N,1,16,17,NOT APPLICABLE,,ARM3,Y
S0260,3,anemia,N,2,25,26,NOT APPLICABLE,,ARM3,Y
S0260,4,vomiting,N,2,34,35,NOT APPLICABLE,,ARM3,Y
S0260,5,coughing,N,2,42,43,NOT APPLICABLE,,ARM3,Y
S0260,6,decreased_platelet_count,N,2,66,67,NOT APPLICABLE,,ARM3,Y
S0260,7,lipase_increased,N,2,70,71,NOT APPLICABLE,,ARM3,Y
S0260,8,nausea,N,2,78,79,NOT APPLICABLE,,ARM3,Y
S0260,9,alanine_aminotransferase_increased,Y,3,87,190,NOT APPLICABLE,,ARM3,Y
S0260,10,anorexia,N,1,94,127,NOT APPLICABLE,,ARM3,Y
S0261,1,creatinine_increased,N,2,8,9,no_modification,DM004,ARM2,Y
S0261,2,constipation,N,1,12,13,no_modification,DM004,ARM2,Y
S0261,3,hypertension_variable,N,2,15,16,no_modification,DM004,ARM2,Y
S0261,4,hypocalcemia,N,2,29,30,no_modification,DM004,ARM2,Y
S0261,5,maculopapular_lesion,N,1,30,31,no_modification,DM004,ARM2,Y
S0261,6,hypoalbuminemia,N,1,38,39,no_modification,DM004,ARM2,Y
S0261,7,anemia,N,1,42,43,no_modification,DM004,ARM2,Y
S0261,8,other serious adverse events (not individually predicted),Y,3,68,70,NOT APPLICABLE,,ARM2,Y
S0261,9,dyspnea,N,1,72,73,no_modification,DM004,ARM2,Y
S0261,10,decrease_in_appetite,N,1,73,74,no_modification,DM004,ARM2,Y
S0261,11,dehydration,N,2,79,80,no_modification,DM004,ARM2,Y
S0261,12,sleeplessness,N,1,85,127,NOT APPLICABLE,,ARM2,Y
S0261,13,arthralgia,N,2,90,127,NOT APPLICABLE,,ARM2,Y
S0261,14,proteinuria,N,2,109,127,NOT APPLICABLE,,ARM2,Y
S0261,15,event,N,1,110,127,NOT APPLICABLE,,ARM2,Y
S0262,1,rash_erythematous_macules_or_papules,N,1,12,13,NOT APPLICABLE,,ARM3,Y
S0262,2,other serious adverse events (not individually predicted),Y,3,20,22,NOT APPLICABLE,,ARM3,Y
S0262,3,nausea,N,1,25,26,NOT APPLICABLE,,ARM3,Y
S0262,4,anemia,N,1,30,31,NOT APPLICABLE,,ARM3,Y
S0262,5,anorexia,N,2,41,42,NOT APPLICABLE,,ARM3,Y
S0262,6,vomiting,N,1,57,58,NOT APPLICABLE,,ARM3,Y
S0262,7,hypothyroidism,N,2,68,69,NOT APPLICABLE,,ARM3,Y
S0262,8,decreased_platelet_count,N,1,89,127,NOT APPLICABLE,,ARM3,Y
S0263,1,dyspnea,N,2,1,2,no_modification,DM004,ARM2,Y
S0263,2,pain_in_limb,N,2,10,11,no_modification,DM004,ARM2,Y
S0263,3,sleeplessness,N,1,12,13,no_modification,DM004,ARM2,Y
S0263,4,upper_respiratory_infections,N,1,12,13,no_modification,DM004,ARM2,Y
S0263,5,blood_creatinine_increased,N,2,15,16,no_modification,DM004,ARM2,Y
S0263,6,arthralgia,N,1,18,19,no_modification,DM004,ARM2,Y
S0263,7,nausea,N,1,20,21,no_modification,DM004,ARM2,Y
S0263,8,creatinine_increased,N,2,20,21,no_modification,DM004,ARM2,Y
S0263,9,hypocalcemia,N,1,26,27,no_modification,DM004,ARM2,Y
S0263,10,hypoalbuminemia,N,2,35,36,no_modification,DM004,ARM2,Y
S0263,11,pruritus,N,1,46,47,no_modification,DM004,ARM2,Y
S0263,12,dysuria,N,2,46,47,no_modification,DM004,ARM2,Y
S0263,13,coughing,N,2,53,54,no_modification,DM004,ARM2,Y
S0263,14,maculopapular_lesion,N,1,74,75,NOT APPLICABLE,,ARM2,Y
S0263,15,hypertension_variable,N,2,75,76,NOT APPLICABLE,,ARM2,Y
S0263,16,nasal_congestion_finding,N,1,89,127,NOT APPLICABLE,,ARM2,Y
S0264,1,hypertension_variable,N,1,3,4,NOT APPLICABLE,,ARM4,Y
S0264,2,anemia,N,1,8,9,NOT APPLICABLE,,ARM4,Y
S0264,3,dysgeusia,N,2,10,11,NOT APPLICABLE,,ARM4,Y
S0264,4,dizziness,N,2,11,12,NOT APPLICABLE,,ARM4,Y
S0264,5,decreased_platelet_count,N,1,12,13,NOT APPLICABLE,,ARM4,Y
S0264,6,fever,Y,3,20,22,NOT APPLICABLE,,ARM4,Y
S0264,7,fever,N,2,21,22,NOT APPLICABLE,,ARM4,Y
S0264,8,hyperkalemia,N,1,31,32,NOT APPLICABLE,,ARM4,Y
S0264,9,urinary_tract_infection,Y,3,43,45,NOT APPLICABLE,,ARM4,Y
S0264,10,urinary_tract_infection,N,1,49,50,NOT APPLICABLE,,ARM4,Y
S0264,11,back_pain,N,2,51,52,NOT APPLICABLE,,ARM4,Y
S0264,12,anorexia,N,1,64,65,NOT APPLICABLE,,ARM4,Y
S0264,13,blood_creatinine_increased,N,1,70,71,NOT APPLICABLE,,ARM4,Y
S0264,14,increased_frequency_of_micturition,N,2,72,73,NOT APPLICABLE,,ARM4,Y
S0264,15,hiccough,N,1,75,76,NOT APPLICABLE,,ARM4,Y
S0264,16,nausea,N,1,79,80,NOT APPLICABLE,,ARM4,Y
S0264,17,vomiting,N,2,88,127,NOT APPLICABLE,,ARM4,Y
S0264,18,hypomagnesemia,N,1,89,127,NOT APPLICABLE,,ARM4,Y
S0264,19,hypokalemia,N,2,94,127,NOT APPLICABLE,,ARM4,Y
S0265,1,hypoalbuminemia,N,1,15,16,no_modification,DM004,ARM1,Y
S0265,2,pain,N,2,32,33,no_modification,DM004,ARM1,Y
S0265,3,urinary_tract_infection,N,2,40,41,no_modification,DM004,ARM1,Y
S0265,4,hematuria,N,1,43,44,no_modification,DM004,ARM1,Y
S0265,5,abdominal_pain,N,2,47,48,no_modification,DM004,ARM1,Y
S0265,6,dyspnea,N,2,50,51,no_modification,DM004,ARM1,Y
S0265,7,gastroesophageal_reflux_disease,N,1,59,60,no_modification,DM004,ARM1,Y
S0265,8,nasal_congestion_finding,N,2,76,77,no_modification,DM004,ARM1,Y
S0265,9,hypertension_variable,N,2,78,79,no_modification,DM004,ARM1,Y
S0265,10,nausea,N,2,90,127,NOT APPLICABLE,,ARM1,Y
S0265,11,arthralgia,N,1,99,127,NOT APPLICABLE,,ARM1,Y
S0265,12,fatigue,N,1,100,127,NOT APPLICABLE,,ARM1,Y
S0265,13,hyperphosphatemia,N,2,101,127,NOT APPLICABLE,,ARM1,Y
S0265,14,hyponatremia,N,2,108,127,NOT APPLICABLE,,ARM1,Y
S0266,1,palmar_plantar_erythrodysesthesia_syndrome,N,1,9,10,no_modification,DM004,ARM2,Y
S0266,2,hair_loss/alopecia_(scalp_or_body),N,2,20,21,no_modification,DM004,ARM2,Y
S0266,3,neuropathy:_sensory,N,2,22,23,no_modification,DM004,ARM2,Y
S0266,4,anorexia,N,2,26,27,no_modification,DM004,ARM2,Y
S0266,5,headache,N,2,28,29,no_modification,DM004,ARM2,Y
S0266,6,creatinine_increased,N,2,57,58,no_modification,DM004,ARM2,Y
S0266,7,arthralgia,N,2,75,76,no_modification,DM004,ARM2,Y
S0266,8,pain,N,1,79,80,no_modification,DM004,ARM2,Y
S0266,9,dehydration,Y,3,88,190,NOT APPLICABLE,,ARM2,Y
S0266,10,chills,N,1,101,127,NOT APPLICABLE,,ARM2,Y
S0266,11,hemoglobin_normal_12_16_gm,N,1,102,127,NOT APPLICABLE,,ARM2,Y
S0266,12,constipation,N,1,104,127,NOT APPLICABLE,,ARM2,Y
S0266,13,hypertension_variable,N,2,107,127,NOT APPLICABLE,,ARM2,Y
S0267,1,decrease_in_appetite,N,2,25,26,no_modification,DM004,ARM1,Y
S0267,2,anemia,N,1,35,36,no_modification,DM004,ARM1,Y
S0267,3,fever,N,1,48,49,no_modification,DM004,ARM1,Y
S0267,4,hematuria,N,2,53,54,no_modification,DM004,ARM1,Y
S0267,5,alanine_aminotransferase_increased,N,2,79,80,NOT APPLICABLE,,ARM1,Y
S0267,6,nausea,N,1,93,127,NOT APPLICABLE,,ARM1,Y
S0268,1,coughing,N,2,11,12,no_modification,DM004,ARM2,Y
S0268,2,abdominal_pain,N,1,21,22,no_modification,DM004,ARM2,Y
S0268,3,nausea,N,1,37,38,no_modification,DM004,ARM2,Y
S0268,4,hypomagnesemia,N,2,44,45,no_modification,DM004,ARM2,Y
S0268,5,hiccough,N,1,55,56,no_modification,DM004,ARM2,Y
S0268,6,hypothyroidism,N,2,67,68,NOT APPLICABLE,,ARM2,Y
S0268,7,vomiting,N,2,81,82,NOT APPLICABLE,,ARM2,Y
S0269,1,decreased_platelet_count,N,1,21,22,no_modification,DM004,ARM2,Y
S0269,2,arthralgia,N,2,53,54,no_modification,DM004,ARM2,Y
S0269,3,other serious adverse events (not individually predicted),Y,3,73,75,NOT APPLICABLE,,ARM2,Y
S0269,4,hiccough,N,2,77,78,no_modification,DM004,ARM2,Y
S0269,5,rash_erythematous_macules_or_papules,N,1,79,80,no_modification,DM004,ARM2,Y
S0269,6,asthenia,N,1,83,84,no_modification,DM004,ARM2,Y
S0269,7,anemia,N,2,89,127,NOT APPLICABLE,,ARM2,Y
S0270,1,decreased_platelet_count,Y,3,1,3,NOT APPLICABLE,,ARM2,Y
S0270,2,decrease_in_appetite,N,2,40,41,no_modification,DM004,ARM2,Y
S0270,3,decreased_platelet_count,N,2,85,127,NOT APPLICABLE,,ARM2,Y
S0270,4,rash_erythematous_macules_or_papules,N,2,94,127,NOT APPLICABLE,,ARM2,Y
S0270,5,anemia,N,2,97,127,NOT APPLICABLE,,ARM2,Y
S0270,6,vomiting,N,2,100,127,NOT APPLICABLE,,ARM2,Y
S0270,7,nausea,N,1,107,127,NOT APPLICABLE,,ARM2,Y
S0271,1,nausea,N,2,74,75,no_modification,DM004,ARM1,Y
S0271,2,anemia,N,1,90,127,NOT APPLICABLE,,ARM1,Y
S0272,1,abdominal_pain,N,1,10,11,NOT APPLICABLE,,ARM3,Y
S0272,2,rash_erythematous_macules_or_papules,N,1,52,53,NOT APPLICABLE,,ARM3,Y
S0272,3,decreased_platelet_count,N,2,54,55,NOT APPLICABLE,,ARM3,Y
S0272,4,vomiting,N,1,81,82,NOT APPLICABLE,,ARM3,Y
S0272,5,hiccough,N,2,91,127,NOT APPLICABLE,,ARM3,Y
S0272,6,nausea,N,2,105,127,NOT APPLICABLE,,ARM3,Y
S0272,7,anemia,N,1,108,127,NOT APPLICABLE,,ARM3,Y
S0273,1,hypertension_variable,N,1,15,16,no_modification,DM004,ARM1,Y
S0273,2,gastroesophageal_reflux_disease,N,1,15,16,no_modification,DM004,ARM1,Y
S0273,3,urinary_tract_infection,N,1,21,22,no_modification,DM004,ARM1,Y
S0273,4,dyspnea,N,2,37,38,no_modification,DM004,ARM1,Y
S0273,5,decrease_in_appetite,N,2,43,44,no_modification,DM004,ARM1,Y
S0273,6,hypoalbuminemia,N,2,49,50,no_modification,DM004,ARM1,Y
S0273,7,hyponatremia,N,1,53,54,no_modification,DM004,ARM1,Y
S0273,8,maculopapular_lesion,N,1,62,63,no_modification,DM004,ARM1,Y
S0273,9,hyperphosphatemia,N,1,65,66,NOT APPLICABLE,,ARM1,Y
S0273,10,dyspepsia,N,2,75,76,NOT APPLICABLE,,ARM1,Y
S0273,11,nasal_congestion_finding,N,1,75,76,NOT APPLICABLE,,ARM1,Y
S0273,12,other serious adverse events (not individually predicted),Y,3,81,83,NOT APPLICABLE,,ARM1,Y
S0273,13,diarrhea,N,1,82,83,NOT APPLICABLE,,ARM1,Y
S0273,14,arthralgia,N,1,87,127,NOT APPLICABLE,,ARM1,Y
S0274,1,hypertension_variable,N,2,1,2,no_modification,DM004,ARM2,Y
S0274,2,sleeplessness,N,2,3,4,no_modification,DM004,ARM2,Y
S0274,3,dyspnea,N,2,20,21,no_modification,DM004,ARM2,Y
S0274,4,hyperkalemia,N,2,22,23,no_modification,DM004,ARM2,Y
S0274,5,alanine_aminotransferase_increased,N,1,29,30,no_modification,DM004,ARM2,Y
S0274,6,dyspepsia,N,2,32,33,no_modification,DM004,ARM2,Y
S0274,7,abdominal_pain,N,1,51,52,no_modification,DM004,ARM2,Y
S0274,8,hypoalbuminemia,N,2,52,53,no_modification,DM004,ARM2,Y
S0274,9,hypocalcemia,N,1,56,57,no_modification,DM004,ARM2,Y
S0274,10,nasal_congestion_finding,N,2,95,127,NOT APPLICABLE,,ARM2,Y
S0274,11,hypothyroidism,N,1,97,127,NOT APPLICABLE,,ARM2,Y
S0274,12,pain,N,1,104,127,NOT APPLICABLE,,ARM2,Y
S0275,1,sleeplessness,N,2,1,2,NOT APPLICABLE,,ARM3,Y
S0275,2,dyspnea,N,2,15,16,NOT APPLICABLE,,ARM3,Y
S0275,3,hypokalemia,N,1,16,17,NOT APPLICABLE,,ARM3,Y
S0275,4,nasal_congestion_finding,N,2,23,24,NOT APPLICABLE,,ARM3,Y
S0275,5,hypomagnesemia,N,1,39,40,NOT APPLICABLE,,ARM3,Y
S0275,6,other serious adverse events (not individually predicted),Y,3,50,52,NOT APPLICABLE,,ARM3,Y
S0275,7,nausea,N,1,54,55,NOT APPLICABLE,,ARM3,Y
S0275,8,arthralgia,N,2,63,64,NOT APPLICABLE,,ARM3,Y
S0275,9,proteinuria,N,1,66,67,NOT APPLICABLE,,ARM3,Y
S0275,10,hypertension_variable,N,1,68,69,NOT APPLICABLE,,ARM3,Y
S0275,11,pruritus,N,1,91,127,NOT APPLICABLE,,ARM3,Y
S0275,12,hyperphosphatemia,N,2,91,127,NOT APPLICABLE,,ARM3,Y
S0275,13,hypocalcemia,N,1,93,127,NOT APPLICABLE,,ARM3,Y
S0275,14,hypoalbuminemia,N,2,94,127,NOT APPLICABLE,,ARM3,Y
S0275,15,blood_creatinine_increased,N,1,94,127,NOT APPLICABLE,,ARM3,Y
S0276,1,nausea,N,1,11,12,NOT APPLICABLE,,ARM3,Y
S0276,2,hypothyroidism,N,1,13,14,NOT APPLICABLE,,ARM3,Y
S0276,3,hypomagnesemia,N,1,28,29,NOT APPLICABLE,,ARM3,Y
S0276,4,vomiting,N,1,44,45,NOT APPLICABLE,,ARM3,Y
S0276,5,asthenia,N,2,49,50,NOT APPLICABLE,,ARM3,Y
S0276,6,rash_erythematous_macules_or_papules,N,2,49,50,NOT APPLICABLE,,ARM3,Y
S0276,7,other serious adverse events (not individually predicted),Y,3,92,190,NOT APPLICABLE,,ARM3,Y
S0276,8,coughing,N,2,100,127,NOT APPLICABLE,,ARM3,Y
S0276,9,lipase_increased,N,1,100,127,NOT APPLICABLE,,ARM3,Y
S0276,10,proteinuria,N,1,110,127,NOT APPLICABLE,,ARM3,Y
S0276,11,anemia,N,2,113,127,NOT APPLICABLE,,ARM3,Y
S0277,1,pain,N,1,4,5,NOT APPLICABLE,,ARM3,Y
S0277,2,headache,N,2,29,30,NOT APPLICABLE,,ARM3,Y
S0277,3,coughing,N,2,42,43,NOT APPLICABLE,,ARM3,Y
S0277,4,hemoglobin_normal_12_16_gm,N,2,44,45,NOT APPLICABLE,,ARM3,Y
S0277,5,sensory_neuropathy,N,1,48,49,NOT APPLICABLE,,ARM3,Y
S0277,6,chills,N,2,53,54,NOT APPLICABLE,,ARM3,Y
S0277,7,anemia,Y,3,74,76,NOT APPLICABLE,,ARM3,Y
S0277,8,anemia,N,2,75,76,NOT APPLICABLE,,ARM3,Y
S0277,9,palmar_plantar_erythrodysesthesia_syndrome,N,2,87,127,NOT APPLICABLE,,ARM3,Y
S0277,10,creatinine_increased,N,2,98,127,NOT APPLICABLE,,ARM3,Y
S0277,11,back_pain,N,2,100,127,NOT APPLICABLE,,ARM3,Y
S0277,12,thrombocytopenia,N,1,105,127,NOT APPLICABLE,,ARM3,Y
S0278,1,anemia,N,2,8,9,NOT APPLICABLE,,ARM4,Y
S0279,1,hypertension_variable,N,2,10,11,NOT APPLICABLE,,ARM4,Y
S0279,2,hypocalcemia,N,2,10,11,NOT APPLICABLE,,ARM4,Y
S0279,3,headache,N,1,12,13,NOT APPLICABLE,,ARM4,Y
S0279,4,fever,N,1,12,13,NOT APPLICABLE,,ARM4,Y
S0279,5,pain_in_limb,N,2,15,16,NOT APPLICABLE,,ARM4,Y
S0279,6,pruritus,N,1,31,32,NOT APPLICABLE,,ARM4,Y
S0279,7,anemia,N,1,42,43,NOT APPLICABLE,,ARM4,Y
S0279,8,arthralgia,N,1,43,44,NOT APPLICABLE,,ARM4,Y
S0279,9,nausea,N,1,48,49,NOT APPLICABLE,,ARM4,Y
S0279,10,hyponatremia,N,2,54,55,NOT APPLICABLE,,ARM4,Y
S0279,11,hematuria,N,1,57,58,NOT APPLICABLE,,ARM4,Y
S0279,12,diarrhea,N,1,58,59,NOT APPLICABLE,,ARM4,Y
S0279,13,dysuria,N,2,67,68,NOT APPLICABLE,,ARM4,Y
S0279,14,hypoalbuminemia,N,2,72,73,NOT APPLICABLE,,ARM4,Y
S0279,15,nasal_congestion_finding,N,1,79,80,NOT APPLICABLE,,ARM4,Y
S0279,16,hyperphosphatemia,N,2,79,80,NOT APPLICABLE,,ARM4,Y
S0279,17,decrease_in_appetite,N,1,82,83,NOT APPLICABLE,,ARM4,Y
S0279,18,hyperkalemia,N,1,87,127,NOT APPLICABLE,,ARM4,Y
S0279,19,dyspnea,N,2,93,127,NOT APPLICABLE,,ARM4,Y
S0280,1,rash_erythematous_macules_or_papules,N,1,6,7,NOT APPLICABLE,,ARM3,Y
S0280,2,maculopapular_lesion,N,2,17,18,NOT APPLICABLE,,ARM3,Y
S0280,3,nausea,N,2,30,31,NOT APPLICABLE,,ARM3,Y
S0280,4,dysuria,N,1,38,39,NOT APPLICABLE,,ARM3,Y
S0280,5,dyspnea,N,2,49,50,NOT APPLICABLE,,ARM3,Y
S0280,6,decrease_in_appetite,N,1,75,76,NOT APPLICABLE,,ARM3,Y
S0280,7,diarrhea,N,1,84,127,NOT APPLICABLE,,ARM3,Y
S0280,8,hypocalcemia,N,1,89,127,NOT APPLICABLE,,ARM3,Y
S0280,9,hypoalbuminemia,N,1,104,127,NOT APPLICABLE,,ARM3,Y
S0280,10,nasal_congestion_finding,N,2,106,127,NOT APPLICABLE,,ARM3,Y
S0281,1,anorexia,N,1,1,2,NOT APPLICABLE,,ARM3,Y
S0281,2,asthenia,N,1,18,19,NOT APPLICABLE,,ARM3,Y
S0281,3,headache,N,2,27,28,NOT APPLICABLE,,ARM3,Y
S0281,4,vomiting,N,1,29,30,NOT APPLICABLE,,ARM3,Y
S0281,5,anemia,N,1,36,37,NOT APPLICABLE,,ARM3,Y
S0281,6,other serious adverse events (not individually predicted),Y,3,49,51,NOT APPLICABLE,,ARM3,Y
S0281,7,hiccough,N,2,58,59,NOT APPLICABLE,,ARM3,Y
S0281,8,coughing,N,2,85,127,NOT APPLICABLE,,ARM3,Y
S0281,9,decreased_platelet_count,N,2,114,127,NOT APPLICABLE,,ARM3,Y
S0282,1,TEAE with a fatal outcome,N,2,5,6,NOT APPLICABLE,,ARM4,Y
S0282,2,nausea,N,2,11,12,NOT APPLICABLE,,ARM4,Y
S0282,3,dyspepsia,N,2,30,31,NOT APPLICABLE,,ARM4,Y
S0282,4,decrease_in_appetite,N,1,40,41,NOT APPLICABLE,,ARM4,Y
S0282,5,nasal_congestion_finding,N,1,53,54,NOT APPLICABLE,,ARM4,Y
S0282,6,arthralgia,N,2,60,61,NOT APPLICABLE,,ARM4,Y
S0282,7,anorexia,N,1,62,63,NOT APPLICABLE,,ARM4,Y
S0282,8,dysuria,N,1,78,79,NOT APPLICABLE,,ARM4,Y
S0282,9,hyperphosphatemia,N,1,78,79,NOT APPLICABLE,,ARM4,Y
S0282,10,blood_creatinine_increased,N,2,81,82,NOT APPLICABLE,,ARM4,Y
S0282,11,dyspnea,N,1,93,127,NOT APPLICABLE,,ARM4,Y
S0282,12,hypocalcemia,N,1,98,127,NOT APPLICABLE,,ARM4,Y
S0282,13,hypoalbuminemia,N,1,106,127,NOT APPLICABLE,,ARM4,Y
S0282,14,hypertension_variable,N,2,107,127,NOT APPLICABLE,,ARM4,Y
S0283,1,dyspnea,N,2,6,7,no_modification,DM004,ARM1,Y
S0283,2,vomiting,N,1,11,12,no_modification,DM004,ARM1,Y
S0283,3,anemia,N,1,27,28,no_modification,DM004,ARM1,Y
S0283,4,decreased_platelet_count,N,2,40,41,no_modification,DM004,ARM1,Y
S0283,5,coughing,N,1,41,42,no_modification,DM004,ARM1,Y
S0283,6,constipation,N,2,47,48,no_modification,DM004,ARM1,Y
S0283,7,hyperglycemia,N,2,69,70,NOT APPLICABLE,,ARM1,Y
S0283,8,abdominal_pain,N,2,72,73,NOT APPLICABLE,,ARM1,Y
S0285,1,diarrhea,N,2,9,10,hold;no_modification,DM004;DM026,ARM1,Y
S0285,2,headache,N,2,29,30,no_modification,DM004,ARM1,Y
S0285,3,anemia,N,2,31,32,no_modification,DM004,ARM1,Y
S0285,4,pain,N,1,34,35,no_modification,DM004,ARM1,Y
S0285,5,alanine_aminotransferase_increased,N,1,34,35,no_modification,DM004,ARM1,Y
S0285,6,dysgeusia,N,2,38,39,no_modification,DM004,ARM1,Y
S0285,7,dyspnea,N,2,54,55,no_modification,DM004,ARM1,Y
S0285,8,hemoglobin_normal_12_16_gm,N,1,54,55,no_modification,DM004,ARM1,Y
S0285,9,palmar_plantar_erythrodysesthesia_syndrome,N,2,69,70,NOT APPLICABLE,,ARM1,Y
S0285,10,dyspepsia,N,2,74,75,NOT APPLICABLE,,ARM1,Y
S0285,11,abdominal_pain,N,1,82,83,NOT APPLICABLE,,ARM1,Y
S0285,12,sensory_neuropathy,N,1,82,83,NOT APPLICABLE,,ARM1,Y
S0285,13,constipation,N,1,91,127,NOT APPLICABLE,,ARM1,Y
S0285,14,dry_skin,N,1,93,127,NOT APPLICABLE,,ARM1,Y
S0286,1,hiccough,N,1,8,9,no_modification,DM004,ARM1,Y
S0286,2,abdominal_pain,N,2,12,13,no_modification,DM004,ARM1,Y
S0286,3,vomiting,N,2,17,18,no_modification,DM004,ARM1,Y
S0286,4,neutrophil_count_decreased,N,2,21,22,no_modification,DM004,ARM1,Y
S0286,5,headache,N,2,22,23,no_modification,DM004,ARM1,Y
S0286,6,nausea,N,2,23,24,no_modification,DM004,ARM1,Y
S0286,7,hypothyroidism,N,1,24,25,no_modification,DM004,ARM1,Y
S0286,8,arthralgia,N,1,30,31,no_modification,DM004,ARM1,Y
S0286,9,decreased_platelet_count,N,1,32,33,no_modification,DM004,ARM1,Y
S0286,10,asthenia,N,2,36,37,no_modification,DM004,ARM1,Y
S0286,11,rash_erythematous_macules_or_papules,N,2,81,82,no_modification,DM004,ARM1,Y
S0286,12,anemia,N,1,82,83,no_modification,DM004,ARM1,Y
S0287,1,anemia,N,2,18,19,NOT APPLICABLE,,ARM3,Y
S0287,2,fatigue,N,2,49,50,NOT APPLICABLE,,ARM3,Y
S0287,3,hemoglobin_normal_12_16_gm,N,1,52,53,NOT APPLICABLE,,ARM3,Y
S0287,4,abdominal_pain,N,1,56,57,NOT APPLICABLE,,ARM3,Y
S0287,5,diarrhea,N,2,57,58,hold,DM026,ARM3,Y
S0287,6,diarrhea,N,1,57,58,NOT APPLICABLE,,ARM3,Y
S0287,7,alanine_aminotransferase_increased,N,2,70,71,hold,DM028,ARM3,Y
S0287,8,"neoplasms_benign,_malignant_and_unspecified_(incl_cysts_and_polyps)_-_other,_specify",Y,3,71,73,NOT APPLICABLE,,ARM3,Y
S0287,9,palmar_plantar_erythrodysesthesia_syndrome,N,1,92,127,NOT APPLICABLE,,ARM3,Y
S0287,10,dehydration,N,1,98,127,NOT APPLICABLE,,ARM3,Y
S0287,11,dry_skin,N,2,103,127,NOT APPLICABLE,,ARM3,Y
S0287,12,pain,N,2,105,127,NOT APPLICABLE,,ARM3,Y
S0287,13,chills,N,2,113,127,NOT APPLICABLE,,ARM3,Y
S0288,1,dysuria,N,2,2,3,NOT APPLICABLE,,ARM3,Y
S0288,2,constipation,N,2,6,7,NOT APPLICABLE,,ARM3,Y
S0288,3,anorexia,N,2,21,22,NOT APPLICABLE,,ARM3,Y
S0288,4,gastroesophageal_reflux_disease,N,2,28,29,NOT APPLICABLE,,ARM3,Y
S0288,5,anemia,Y,3,33,35,NOT APPLICABLE,,ARM3,Y
S0288,6,dyspnea,N,2,41,42,NOT APPLICABLE,,ARM3,Y
S0288,7,coughing,N,1,48,49,NOT APPLICABLE,,ARM3,Y
S0288,8,event,N,2,67,68,NOT APPLICABLE,,ARM3,Y
S0288,9,hypocalcemia,N,1,68,69,NOT APPLICABLE,,ARM3,Y
S0288,10,anemia,N,2,77,78,NOT APPLICABLE,,ARM3,Y
S0288,11,hyperphosphatemia,N,1,86,127,NOT APPLICABLE,,ARM3,Y
S0288,12,nasal_congestion_finding,N,1,93,127,NOT APPLICABLE,,ARM3,Y
S0288,13,rash_erythematous_macules_or_papules,N,2,97,127,NOT APPLICABLE,,ARM3,Y
S0288,14,decrease_in_appetite,N,2,101,127,NOT APPLICABLE,,ARM3,Y
S0288,15,hypertension_variable,N,1,107,127,NOT APPLICABLE,,ARM3,Y
S0288,16,maculopapular_lesion,N,1,111,127,NOT APPLICABLE,,ARM3,Y
S0288,17,fever,N,1,113,127,NOT APPLICABLE,,ARM3,Y
S0289,1,hypertension_variable,N,2,1,2,no_modification,DM004,ARM2,Y
S0289,2,hypercalcemia,N,2,9,10,no_modification,DM004,ARM2,Y
S0289,3,nausea,N,2,13,14,no_modification,DM004,ARM2,Y
S0289,4,hypocalcemia,N,2,27,28,no_modification,DM004,ARM2,Y
S0289,5,hypoalbuminemia,N,2,40,41,no_modification,DM004,ARM2,Y
S0289,6,anemia,N,1,42,43,no_modification,DM004,ARM2,Y
S0289,7,dysuria,N,1,49,50,no_modification,DM004,ARM2,Y
S0289,8,arthralgia,N,2,64,65,no_modification,DM004,ARM2,Y
S0289,9,dyspepsia,N,2,67,68,no_modification,DM004,ARM2,Y
S0289,10,vomiting,N,2,72,73,no_modification,DM004,ARM2,Y
S0289,11,pain_in_limb,N,1,82,83,no_modification,DM004,ARM2,Y
S0289,12,hyperphosphatemia,N,2,92,127,NOT APPLICABLE,,ARM2,Y
S0289,13,dyspnea,N,1,97,127,NOT APPLICABLE,,ARM2,Y
S0289,14,event,N,2,97,127,NOT APPLICABLE,,ARM2,Y
S0289,15,nasal_congestion_finding,N,2,107,127,NOT APPLICABLE,,ARM2,Y
S0290,1,hypoalbuminemia,N,2,2,3,NOT APPLICABLE,,ARM4,Y
S0290,2,pain_in_limb,N,2,18,19,NOT APPLICABLE,,ARM4,Y
S0290,3,urinary_tract_infection,Y,3,19,21,NOT APPLICABLE,,ARM4,Y
S0290,4,creatinine_increased,N,2,43,44,NOT APPLICABLE,,ARM4,Y
S0290,5,nasal_congestion_finding,N,2,44,45,NOT APPLICABLE,,ARM4,Y
S0290,6,abdominal_pain,N,2,45,46,NOT APPLICABLE,,ARM4,Y
S0290,7,decrease_in_appetite,N,1,51,52,NOT APPLICABLE,,ARM4,Y
S0290,8,hypocalcemia,N,1,51,52,NOT APPLICABLE,,ARM4,Y
S0290,9,hypertension_variable,N,2,52,53,NOT APPLICABLE,,ARM4,Y
S0290,10,dysuria,N,2,53,54,NOT APPLICABLE,,ARM4,Y
S0290,11,event,N,1,54,55,NOT APPLICABLE,,ARM4,Y
S0290,12,fever,N,2,57,58,NOT APPLICABLE,,ARM4,Y
S0290,13,dyspnea,N,1,71,72,NOT APPLICABLE,,ARM4,Y
S0290,14,increased_frequency_of_micturition,N,1,71,72,NOT APPLICABLE,,ARM4,Y
S0290,15,rash_erythematous_macules_or_papules,N,2,73,74,NOT APPLICABLE,,ARM4,Y
S0290,16,proteinuria,N,1,86,127,NOT APPLICABLE,,ARM4,Y
S0290,17,hypomagnesemia,N,2,110,127,NOT APPLICABLE,,ARM4,Y
S0291,1,sepsis,Y,3,1,3,NOT APPLICABLE,,ARM2,Y
S0291,2,coughing,N,2,5,6,no_modification,DM004,ARM2,Y
S0291,3,hematuria,N,2,16,17,no_modification,DM004,ARM2,Y
S0291,4,peripheral_edema,N,1,21,22,no_modification,DM004,ARM2,Y
S0291,5,fever,N,1,26,27,no_modification,DM004,ARM2,Y
S0291,6,anemia,N,2,38,39,no_modification,DM004,ARM2,Y
S0291,7,sleeplessness,N,2,38,39,no_modification,DM004,ARM2,Y
S0291,8,nausea,N,1,51,52,no_modification,DM004,ARM2,Y
S0291,9,hypoalbuminemia,N,2,57,58,no_modification,DM004,ARM2,Y
S0291,10,pneumonia,Y,3,62,64,NOT APPLICABLE,,ARM2,Y
S0291,11,decreased_platelet_count,Y,3,83,127,NOT APPLICABLE,,ARM2,Y
S0291,12,hyperkalemia,N,2,91,127,NOT APPLICABLE,,ARM2,Y
S0292,1,diarrhea,N,1,6,7,NOT APPLICABLE,,ARM4,Y
S0292,2,hyponatremia,N,1,15,16,NOT APPLICABLE,,ARM4,Y
S0292,3,hypomagnesemia,N,1,21,22,NOT APPLICABLE,,ARM4,Y
S0292,4,sensory_neuropathy,N,1,29,30,NOT APPLICABLE,,ARM4,Y
S0292,5,arthralgia,N,1,44,45,NOT APPLICABLE,,ARM4,Y
S0292,6,hypocalcemia,N,1,47,48,NOT APPLICABLE,,ARM4,Y
S0292,7,event,N,1,47,48,NOT APPLICABLE,,ARM4,Y
S0292,8,dyspnea,N,2,52,53,NOT APPLICABLE,,ARM4,Y
S0292,9,hypoalbuminemia,N,2,54,55,NOT APPLICABLE,,ARM4,Y
S0292,10,nasal_congestion_finding,N,1,66,67,NOT APPLICABLE,,ARM4,Y
S0292,11,other serious adverse events (not individually predicted),Y,3,84,190,NOT APPLICABLE,,ARM4,Y
S0292,12,hypertension_variable,N,1,86,127,NOT APPLICABLE,,ARM4,Y
S0292,13,dysuria,N,1,89,127,NOT APPLICABLE,,ARM4,Y
S0292,14,dyspepsia,N,1,100,127,NOT APPLICABLE,,ARM4,Y
S0293,1,other serious adverse events (not individually predicted),Y,3,9,11,NOT APPLICABLE,,ARM4,Y
S0293,2,abdominal_pain,N,2,38,39,NOT APPLICABLE,,ARM4,Y
S0293,3,decreased_platelet_count,N,2,80,81,NOT APPLICABLE,,ARM4,Y
S0293,4,anemia,N,2,90,127,NOT APPLICABLE,,ARM4,Y
S0294,1,nasal_congestion_finding,N,2,10,11,no_modification,DM004,ARM1,Y
S0294,2,dyspnea,N,2,22,23,no_modification,DM004,ARM1,Y
S0294,3,creatinine_increased,N,2,27,28,no_modification,DM004,ARM1,Y
S0294,4,blood_creatinine_increased,N,1,28,29,no_modification,DM004,ARM1,Y
S0294,5,hypomagnesemia,N,2,29,30,no_modification,DM004,ARM1,Y
S0294,6,pruritus,N,1,31,32,no_modification,DM004,ARM1,Y
S0294,7,constipation,N,2,42,43,no_modification,DM004,ARM1,Y
S0294,8,hyponatremia,N,1,53,54,no_modification,DM004,ARM1,Y
S0294,9,hypertension_variable,N,2,71,72,no_modification,DM004,ARM1,Y
S0294,10,dysuria,N,2,72,73,no_modification,DM004,ARM1,Y
S0294,11,proteinuria,N,2,83,84,no_modification,DM004,ARM1,Y
S0294,12,decrease_in_appetite,N,2,89,127,NOT APPLICABLE,,ARM1,Y
S0294,13,hypoalbuminemia,N,1,90,127,NOT APPLICABLE,,ARM1,Y
S0294,14,hypocalcemia,N,2,94,127,NOT APPLICABLE,,ARM1,Y
S0294,15,event,N,1,114,127,NOT APPLICABLE,,ARM1,Y
S0295,1,coughing,N,1,4,5,NOT APPLICABLE,,ARM3,Y
S0295,2,pain,N,2,14,15,NOT APPLICABLE,,ARM3,Y
S0296,1,decreased_platelet_count,N,1,6,7,NOT APPLICABLE,,ARM4,Y
S0296,2,aspartate_aminotransferase_increased,N,2,10,11,hold,DM028,ARM4,Y
S0296,3,thrombocytopenia,N,2,34,35,NOT APPLICABLE,,ARM4,Y
S0296,4,headache,N,1,36,37,NOT APPLICABLE,,ARM4,Y
S0296,5,nausea,N,2,37,38,NOT APPLICABLE,,ARM4,Y
S0296,6,sleeplessness,N,2,39,40,NOT APPLICABLE,,ARM4,Y
S0296,7,dysgeusia,N,1,40,41,NOT APPLICABLE,,ARM4,Y
S0296,8,back_pain,N,2,61,62,NOT APPLICABLE,,ARM4,Y
S0296,9,dizziness,N,1,70,71,NOT APPLICABLE,,ARM4,Y
S0296,10,coughing,N,1,72,73,NOT APPLICABLE,,ARM4,Y
S0296,11,hematuria,N,1,84,127,NOT APPLICABLE,,ARM4,Y
S0297,1,decreased_platelet_count,N,2,8,9,no_modification,DM004,ARM1,Y
S0297,2,hematuria,N,1,8,9,no_modification,DM004,ARM1,Y
S0297,3,anemia,N,1,9,10,no_modification,DM004,ARM1,Y
S0297,4,other serious adverse events (not individually predicted),Y,3,28,30,NOT APPLICABLE,,ARM1,Y
S0297,5,vomiting,N,1,29,30,no_modification,DM004,ARM1,Y
S0297,6,anorexia,N,2,50,51,no_modification,DM004,ARM1,Y
S0297,7,nausea,N,1,65,66,no_modification,DM004,ARM1,Y
S0297,8,neutrophil_count_decreased,N,2,87,127,NOT APPLICABLE,,ARM1,Y
S0297,9,hyperglycemia,N,1,94,127,NOT APPLICABLE,,ARM1,Y
S0298,1,nausea,N,2,6,7,no_modification,DM004,ARM2,Y
S0298,2,coughing,N,2,33,34,no_modification,DM004,ARM2,Y
S0298,3,decreased_platelet_count,N,2,45,46,no_modification,DM004,ARM2,Y
S0298,4,hyperglycemia,N,2,60,61,no_modification,DM004,ARM2,Y
S0298,5,urinary_tract_infection,N,2,79,80,no_modification,DM004,ARM2,Y
S0298,6,weight_loss,N,1,91,127,NOT APPLICABLE,,ARM2,Y
S0299,1,nasal_congestion_finding,N,1,1,2,no_modification,DM004,ARM2,Y
S0299,2,vomiting,N,2,5,6,no_modification,DM004,ARM2,Y
S0299,3,hypertension_variable,N,2,14,15,no_modification,DM004,ARM2,Y
S0299,4,rash_erythematous_macules_or_papules,N,2,15,16,no_modification,DM004,ARM2,Y
S0299,5,back_pain,N,2,24,25,no_modification,DM004,ARM2,Y
S0299,6,hyperphosphatemia,N,1,29,30,no_modification,DM004,ARM2,Y
S0299,7,hypoalbuminemia,N,2,36,37,no_modification,DM004,ARM2,Y
S0299,8,dyspnea,N,2,37,38,no_modification,DM004,ARM2,Y
S0299,9,nausea,N,1,52,53,no_modification,DM004,ARM2,Y
S0299,10,decrease_in_appetite,N,1,59,60,no_modification,DM004,ARM2,Y
S0299,11,hypocalcemia,N,1,67,68,no_modification,DM004,ARM2,Y
S0299,12,creatinine_increased,N,2,71,72,no_modification,DM004,ARM2,Y
S0300,1,fever,N,1,21,22,no_modification,DM004,ARM1,Y
S0300,2,neutrophil_count_decreased,N,1,33,34,no_modification,DM004,ARM1,Y
S0300,3,headache,N,1,36,37,no_modification,DM004,ARM1,Y
S0300,4,hyperglycemia,N,1,62,63,no_modification,DM004,ARM1,Y
S0300,5,dysgeusia,N,1,77,78,no_modification,DM004,ARM1,Y
S0300,6,nausea,N,2,82,83,no_modification,DM004,ARM1,Y
S0300,7,hypomagnesemia,N,2,89,127,NOT APPLICABLE,,ARM1,Y
S0300,8,aspartate_aminotransferase_increased,N,2,107,127,NOT APPLICABLE,,ARM1,Y
S0301,1,hyperkalemia,N,1,6,7,NOT APPLICABLE,,ARM4,Y
S0301,2,fever,N,1,8,9,NOT APPLICABLE,,ARM4,Y
S0301,3,hypertension_variable,N,1,20,21,NOT APPLICABLE,,ARM4,Y
S0301,4,diarrhea,N,2,21,22,hold,DM026,ARM4,Y
S0301,5,proteinuria,N,2,21,22,NOT APPLICABLE,,ARM4,Y
S0301,6,creatinine_increased,N,1,21,22,NOT APPLICABLE,,ARM4,Y
S0301,7,pain,N,2,23,24,NOT APPLICABLE,,ARM4,Y
S0301,8,maculopapular_lesion,N,1,36,37,NOT APPLICABLE,,ARM4,Y
S0301,9,nasal_congestion_finding,N,1,37,38,NOT APPLICABLE,,ARM4,Y
S0301,10,arthralgia,N,1,47,48,NOT APPLICABLE,,ARM4,Y
S0301,11,constipation,N,2,57,58,NOT APPLICABLE,,ARM4,Y
S0301,12,back_pain,N,1,58,59,NOT APPLICABLE,,ARM4,Y
S0301,13,hypoalbuminemia,N,2,61,62,NOT APPLICABLE,,ARM4,Y
S0301,14,event,N,2,64,65,NOT APPLICABLE,,ARM4,Y
S0302,1,vomiting,N,1,2,3,NOT APPLICABLE,,ARM3,Y
S0302,2,nausea,N,2,12,13,NOT APPLICABLE,,ARM3,Y
S0302,3,abdominal_pain,N,1,34,35,NOT APPLICABLE,,ARM3,Y
S0302,4,decreased_platelet_count,N,1,39,40,NOT APPLICABLE,,ARM3,Y
S0302,5,coughing,N,2,73,74,NOT APPLICABLE,,ARM3,Y
S0303,1,coughing,N,1,12,13,no_modification,DM004,ARM1,Y
S0303,2,nausea,N,2,35,36,no_modification,DM004,ARM1,Y
S0303,3,paresthesia,N,2,42,43,no_modification,DM004,ARM1,Y
S0303,4,dizziness,N,1,54,55,no_modification,DM004,ARM1,Y
S0303,5,anemia,N,1,65,66,no_modification,DM004,ARM1,Y
S0303,6,thrombocytopenia,N,1,80,81,no_modification,DM004,ARM1,Y
S0303,7,hypocalcemia,N,1,84,127,no_modification,DM004,ARM1,Y
S0303,8,other serious adverse events (not individually predicted),Y,3,89,190,NOT APPLICABLE,,ARM1,Y
S0303,9,fever,N,1,103,127,NOT APPLICABLE,,ARM1,Y
S0303,10,hematuria,N,2,113,127,NOT APPLICABLE,,ARM1,Y
S0304,1,event,N,1,4,5,NOT APPLICABLE,,ARM3,Y
