STUDYID,USUBJID,ARMCD,AGE,SEX,RACE,ETHNIC,RFSTDTC_DAY,ENROLLMENT_DAY,TRTSDY,TRTEDY,EOTREAS,N_CYCLES,N_REDUCTIONS,N_HOLDS,RDI,ANY_SAE,ANY_GR3,DTHFL,DTHDY
INCB 54828-205,S0001,ARM3,59.69,male,white,not_hispanic_or_latino,1,1.0,1,84,completed planned treatment,4,0,0,1.0,Y,Y,N,
INCB 54828-205,S0002,ARM1,71.05,male,white,not_hispanic_or_latino,1,40.5,1,64,disease progression,4,0,0,1.0,N,N,N,
INCB 54828-205,S0003,ARM2,77.4,male,asian,not_hispanic_or_latino,1,59.6,1,64,disease progression,4,0,0,1.0,Y,Y,N,
INCB 54828-205,S0004,ARM4,68.33,male,white,not_hispanic_or_latino,1,61.5,1,84,completed planned treatment,4,0,0,1.0,N,N,N,
INCB 54828-205,S0005,ARM1,47.87,female,white,not_hispanic_or_latino,1,68.9,1,64,disease progression,4,0,0,1.0,N,N,Y,635
INCB 54828-205,S0006,ARM3,62.24,female,white,not_hispanic_or_latino,1,94.3,1,56,"withdrawal (subject, loss to follow-up or physician decision)",3,0,0,1.0,Y,Y,N,
INCB 54828-205,S0007,ARM4,55.75,male,white,not_hispanic_or_latino,1,208.8,1,84,completed planned treatment,4,0,0,1.0,Y,Y,N,
INCB 54828-205,S0008,ARM2,65.5,male,white,not_hispanic_or_latino,1,246.7,1,64,disease progression,4,0,0,1.0,N,N,N,
INCB 54828-205,S0009,ARM1,58.72,male,white,not_hispanic_or_latino,1,255.0,1,84,completed planned treatment,4,0,0,1.0,N,N,N,
INCB 54828-205,S0010,ARM1,61.9,male,black_or_african_american,not_hispanic_or_latino,1,336.3,1,84,completed planned treatment,4,0,0,1.0,N,N,N,
INCB 54828-205,S0011,ARM4,73.07,male,asian,not_hispanic_or_latino,1,383.4,1,84,completed planned treatment,4,0,0,1.0,N,N,N,
INCB 54828-205,S0012,ARM1,68.12,male,white,not_hispanic_or_latino,1,400.8,1,64,disease progression,4,0,0,1.0,Y,Y,Y,662
INCB 54828-205,S0013,ARM2,56.76,male,white,not_hispanic_or_latino,1,445.3,1,84,completed planned treatment,4,0,0,1.0,N,N,N,
INCB 54828-205,S0014,ARM1,71.04,male,white,not_hispanic_or_latino,1,516.5,1,84,completed planned treatment,4,0,0,1.0,N,N,N,
INCB 54828-205,S0015,ARM4,79.94,female,white,not_hispanic_or_latino,1,586.3,1,84,completed planned treatment,4,0,0,1.0,N,N,N,
INCB 54828-205,S0016,ARM4,77.63,male,white,not_hispanic_or_latino,1,597.2,1,84,completed planned treatment,4,0,1,1.0,N,N,N,
INCB 54828-205,S0017,ARM4,85.93,male,white,hispanic_or_latino,1,722.5,1,84,completed planned treatment,4,0,0,1.0,Y,Y,N,
INCB 54828-205,S0018,ARM4,64.92,male,american_indian_or_alaska_native,not_hispanic_or_latino,1,793.0,1,84,completed planned treatment,4,0,1,1.0,Y,Y,N,
INCB 54828-205,S0019,ARM1,70.09,male,white,hispanic_or_latino,1,796.4,1,84,completed planned treatment,4,0,2,1.0,N,N,N,
INCB 54828-205,S0020,ARM2,59.73,male,white,not_hispanic_or_latino,1,804.4,1,64,disease progression,4,0,0,1.0,Y,Y,N,
INCB 54828-205,S0021,ARM2,46.64,female,white,not_hispanic_or_latino,1,868.4,1,84,completed planned treatment,4,0,0,1.0,Y,Y,N,
INCB 54828-205,S0022,ARM1,39.2,male,white,not_hispanic_or_latino,1,871.0,1,17,"withdrawal (subject, loss to follow-up or physician decision)",1,0,1,0.944,Y,Y,N,
INCB 54828-205,S0023,ARM3,78.76,male,white,not_hispanic_or_latino,1,910.5,1,84,completed planned treatment,4,0,0,1.0,N,N,N,
INCB 54828-205,S0024,ARM1,58.92,female,white,not_hispanic_or_latino,1,960.1,1,84,completed planned treatment,4,0,0,1.0,Y,Y,N,
INCB 54828-205,S0025,ARM2,51.43,male,white,not_hispanic_or_latino,1,1027.0,1,40,adverse event (registry discontinuation rate),2,0,0,1.0,N,N,N,
INCB 54828-205,S0026,ARM1,57.72,male,unknown_or_not_reported,not_hispanic_or_latino,1,1107.6,1,84,completed planned treatment,4,0,0,1.0,Y,Y,N,
INCB 54828-205,S0027,ARM3,80.13,male,white,not_hispanic_or_latino,1,1115.1,1,84,completed planned treatment,4,0,1,1.0,Y,Y,N,
INCB 54828-205,S0028,ARM2,44.42,male,white,not_hispanic_or_latino,1,1122.1,1,84,completed planned treatment,4,0,0,1.0,N,N,N,
INCB 54828-205,S0029,ARM1,52.75,male,white,not_hispanic_or_latino,1,1146.8,1,12,"withdrawal (subject, loss to follow-up or physician decision)",1,0,1,1.0,Y,Y,N,
INCB 54828-205,S0030,ARM2,75.74,male,black_or_african_american,not_hispanic_or_latino,1,1175.7,1,84,completed planned treatment,4,0,0,1.0,Y,Y,N,
INCB 54828-205,S0031,ARM4,61.74,male,white,not_hispanic_or_latino,1,1180.5,1,64,disease progression,4,0,0,1.0,N,N,N,
INCB 54828-205,S0032,ARM4,52.59,male,black_or_african_american,not_hispanic_or_latino,1,1185.2,1,64,disease progression,4,0,1,1.0,N,N,N,
INCB 54828-205,S0033,ARM3,66.52,male,black_or_african_american,not_hispanic_or_latino,1,1186.6,1,38,"withdrawal (subject, loss to follow-up or physician decision)",2,0,0,1.0,N,N,Y,490
INCB 54828-205,S0034,ARM1,67.09,female,white,not_hispanic_or_latino,1,1232.9,1,84,completed planned treatment,4,0,0,1.0,N,N,N,
INCB 54828-205,S0035,ARM1,83.2,male,white,not_hispanic_or_latino,1,1296.5,1,84,completed planned treatment,4,0,0,1.0,Y,Y,N,
INCB 54828-205,S0036,ARM3,87.25,male,white,not_hispanic_or_latino,1,1330.9,1,84,completed planned treatment,4,0,1,1.0,N,N,N,
INCB 54828-205,S0037,ARM3,59.87,male,white,not_hispanic_or_latino,1,1463.7,1,84,completed planned treatment,4,0,1,1.0,N,N,N,
INCB 54828-205,S0038,ARM3,73.33,male,white,not_hispanic_or_latino,1,1491.8,1,64,disease progression,4,0,0,1.0,Y,Y,N,
INCB 54828-205,S0039,ARM1,67.03,female,white,not_hispanic_or_latino,1,1536.4,1,84,completed planned treatment,4,0,1,1.0,N,N,N,
INCB 54828-205,S0040,ARM1,87.64,male,white,not_hispanic_or_latino,1,1622.8,1,64,disease progression,4,0,0,1.0,N,N,N,
INCB 54828-205,S0041,ARM3,73.34,male,white,not_hispanic_or_latino,1,1677.5,1,64,disease progression,4,0,0,0.833,Y,Y,N,
INCB 54828-205,S0042,ARM4,61.18,female,asian,not_hispanic_or_latino,1,1698.1,1,83,"withdrawal (subject, loss to follow-up or physician decision)",4,0,0,1.0,N,N,N,
INCB 54828-205,S0043,ARM3,48.2,female,white,unknown_or_not_reported,1,1744.5,1,64,disease progression,4,0,0,1.0,N,N,N,
INCB 54828-205,S0044,ARM2,58.9,male,white,not_hispanic_or_latino,1,1797.0,1,84,completed planned treatment,4,0,0,1.0,Y,Y,N,
INCB 54828-205,S0045,ARM4,64.93,male,white,not_hispanic_or_latino,1,1803.1,1,84,completed planned treatment,4,0,0,1.0,N,N,N,
INCB 54828-205,S0046,ARM2,73.71,male,white,not_hispanic_or_latino,1,1818.7,1,64,disease progression,4,0,0,1.0,N,N,N,
INCB 54828-205,S0047,ARM2,63.37,male,white,not_hispanic_or_latino,1,1850.4,1,84,completed planned treatment,4,0,0,1.0,N,N,N,
INCB 54828-205,S0048,ARM2,64.37,male,white,not_hispanic_or_latino,1,1873.6,1,64,disease progression,4,0,0,1.0,N,N,N,
INCB 54828-205,S0049,ARM4,86.28,male,asian,not_hispanic_or_latino,1,1883.4,1,84,completed planned treatment,4,0,0,1.0,N,N,Y,224
INCB 54828-205,S0050,ARM4,71.27,male,white,not_hispanic_or_latino,1,1888.6,1,84,completed planned treatment,4,0,0,1.0,N,N,N,
INCB 54828-205,S0051,ARM1,62.68,female,asian,not_hispanic_or_latino,1,1948.4,1,84,completed planned treatment,4,0,0,1.0,N,N,Y,167
INCB 54828-205,S0052,ARM4,61.33,male,white,not_hispanic_or_latino,1,1960.6,1,59,"withdrawal (subject, loss to follow-up or physician decision)",3,0,0,1.0,Y,Y,N,
INCB 54828-205,S0053,ARM2,51.77,male,asian,not_hispanic_or_latino,1,2090.7,1,25,"withdrawal (subject, loss to follow-up or physician decision)",2,0,0,1.0,Y,Y,N,
INCB 54828-205,S0054,ARM3,61.34,female,white,not_hispanic_or_latino,1,2110.6,1,64,disease progression,4,0,1,1.0,Y,Y,Y,592
INCB 54828-205,S0055,ARM1,80.61,male,white,not_hispanic_or_latino,1,2112.4,1,84,completed planned treatment,4,0,2,1.0,N,N,N,
INCB 54828-205,S0056,ARM2,62.0,male,white,not_hispanic_or_latino,1,2123.1,1,84,completed planned treatment,4,0,0,1.0,N,N,N,
INCB 54828-205,S0057,ARM3,78.03,male,white,not_hispanic_or_latino,1,2129.6,1,64,disease progression,4,0,0,1.0,N,N,N,
INCB 54828-205,S0058,ARM2,56.64,male,white,not_hispanic_or_latino,1,2156.7,1,84,completed planned treatment,4,0,0,1.0,Y,Y,N,
INCB 54828-205,S0059,ARM2,54.99,male,white,not_hispanic_or_latino,1,2229.1,1,84,completed planned treatment,4,0,0,1.0,Y,Y,N,
INCB 54828-205,S0060,ARM2,50.25,male,white,not_hispanic_or_latino,1,2239.3,1,84,completed planned treatment,4,0,0,1.0,Y,Y,Y,323
INCB 54828-205,S0061,ARM4,53.12,female,white,not_hispanic_or_latino,1,2256.6,1,84,completed planned treatment,4,0,0,1.0,Y,Y,N,
INCB 54828-205,S0062,ARM1,80.74,male,white,not_hispanic_or_latino,1,2305.2,1,84,completed planned treatment,4,0,1,1.0,Y,Y,N,
INCB 54828-205,S0063,ARM2,64.76,male,white,not_hispanic_or_latino,1,2316.4,1,84,completed planned treatment,4,0,0,1.0,Y,Y,N,
INCB 54828-205,S0064,ARM3,80.17,male,white,hispanic_or_latino,1,2331.6,1,64,disease progression,4,0,0,1.0,N,N,N,
INCB 54828-205,S0065,ARM2,67.66,male,white,not_hispanic_or_latino,1,2395.3,1,84,completed planned treatment,4,0,0,1.0,N,N,N,
INCB 54828-205,S0066,ARM1,70.59,male,white,not_hispanic_or_latino,1,2437.9,1,84,completed planned treatment,4,0,0,1.0,N,N,N,
INCB 54828-205,S0067,ARM2,61.06,male,white,hispanic_or_latino,1,2446.0,1,64,disease progression,4,0,0,1.0,N,N,Y,434
INCB 54828-205,S0068,ARM1,70.5,male,white,not_hispanic_or_latino,1,2468.8,1,84,completed planned treatment,4,0,1,1.0,N,N,N,
INCB 54828-205,S0069,ARM1,68.56,female,white,not_hispanic_or_latino,1,2534.1,1,64,disease progression,4,0,0,1.0,N,N,N,
INCB 54828-205,S0070,ARM1,60.97,male,asian,not_hispanic_or_latino,1,2541.6,1,64,disease progression,4,0,1,1.0,Y,Y,N,
INCB 54828-205,S0071,ARM3,75.64,male,white,not_hispanic_or_latino,1,2558.6,1,64,disease progression,4,0,1,1.0,Y,Y,N,
INCB 54828-205,S0072,ARM1,71.14,female,white,not_hispanic_or_latino,1,2561.0,1,64,disease progression,4,0,0,1.0,Y,Y,N,
INCB 54828-205,S0073,ARM3,60.92,male,white,not_hispanic_or_latino,1,2578.3,1,84,completed planned treatment,4,0,0,1.0,N,N,N,
INCB 54828-205,S0074,ARM4,63.48,male,white,not_hispanic_or_latino,1,2584.2,1,84,completed planned treatment,4,0,0,1.0,N,N,N,
INCB 54828-205,S0075,ARM3,50.92,male,white,not_hispanic_or_latino,1,2593.3,1,64,disease progression,4,0,1,1.0,Y,Y,N,
INCB 54828-205,S0076,ARM4,36.57,male,white,not_hispanic_or_latino,1,2610.9,1,64,disease progression,4,0,0,1.0,N,N,Y,315
INCB 54828-205,S0077,ARM2,47.4,female,white,not_hispanic_or_latino,1,2617.7,1,84,completed planned treatment,4,0,0,1.0,N,N,N,
INCB 54828-205,S0078,ARM4,68.12,male,white,not_hispanic_or_latino,1,2620.7,1,64,disease progression,4,0,2,1.0,Y,Y,N,
INCB 54828-205,S0079,ARM2,62.78,male,white,not_hispanic_or_latino,1,2641.3,1,64,disease progression,4,0,0,1.0,N,N,N,
INCB 54828-205,S0080,ARM2,56.52,female,white,not_hispanic_or_latino,1,2675.8,1,7,"withdrawal (subject, loss to follow-up or physician decision)",1,0,0,1.0,Y,Y,N,
INCB 54828-205,S0081,ARM4,58.02,female,white,not_hispanic_or_latino,1,2683.5,1,64,disease progression,4,0,0,1.0,N,N,N,
INCB 54828-205,S0082,ARM1,57.02,male,white,not_hispanic_or_latino,1,2691.6,1,84,completed planned treatment,4,0,0,1.0,Y,Y,N,
INCB 54828-205,S0083,ARM4,80.29,male,white,not_hispanic_or_latino,1,2701.1,1,64,disease progression,4,0,0,1.0,Y,Y,N,
INCB 54828-205,S0084,ARM2,65.24,female,white,not_hispanic_or_latino,1,2751.5,1,84,completed planned treatment,4,0,0,1.0,N,N,N,
INCB 54828-205,S0085,ARM1,72.04,male,asian,not_hispanic_or_latino,1,2812.1,1,84,completed planned treatment,4,0,1,1.0,N,N,N,
INCB 54828-205,S0086,ARM1,74.72,male,white,not_hispanic_or_latino,1,2816.4,1,84,completed planned treatment,4,0,0,1.0,Y,Y,N,
INCB 54828-205,S0087,ARM3,61.43,male,black_or_african_american,not_hispanic_or_latino,1,2875.0,1,64,disease progression,4,0,0,1.0,Y,Y,N,
INCB 54828-205,S0088,ARM2,70.71,male,black_or_african_american,not_hispanic_or_latino,1,2912.3,1,64,disease progression,4,0,0,1.0,N,N,N,
INCB 54828-205,S0089,ARM4,82.84,female,white,not_hispanic_or_latino,1,2969.3,1,84,completed planned treatment,4,0,1,1.0,N,N,N,
INCB 54828-205,S0090,ARM3,69.8,male,white,not_hispanic_or_latino,1,2992.8,1,84,completed planned treatment,4,0,0,1.0,Y,Y,N,
INCB 54828-205,S0091,ARM2,46.36,female,white,not_hispanic_or_latino,1,3071.6,1,12,"withdrawal (subject, loss to follow-up or physician decision)",1,0,0,1.0,N,N,N,
INCB 54828-205,S0092,ARM3,56.03,female,white,not_hispanic_or_latino,1,3109.5,1,64,disease progression,4,0,1,1.0,Y,Y,N,
INCB 54828-205,S0093,ARM4,85.02,male,unknown_or_not_reported,not_hispanic_or_latino,1,3130.9,1,84,completed planned treatment,4,0,0,1.0,Y,Y,N,
INCB 54828-205,S0094,ARM1,70.93,male,unknown_or_not_reported,not_hispanic_or_latino,1,3133.1,1,84,completed planned treatment,4,0,2,1.0,Y,Y,N,
INCB 54828-205,S0095,ARM4,56.54,male,white,not_hispanic_or_latino,1,3151.9,1,64,disease progression,4,0,0,1.0,Y,Y,N,
INCB 54828-205,S0096,ARM2,61.94,male,white,not_hispanic_or_latino,1,3315.4,1,64,disease progression,4,0,0,1.0,N,N,N,
INCB 54828-205,S0097,ARM2,82.2,male,white,not_hispanic_or_latino,1,3333.3,1,84,completed planned treatment,4,0,0,1.0,Y,Y,N,
INCB 54828-205,S0098,ARM3,66.14,female,white,not_hispanic_or_latino,1,3365.2,1,64,disease progression,4,0,1,1.0,N,N,Y,248
INCB 54828-205,S0099,ARM2,77.33,male,white,not_hispanic_or_latino,1,3413.4,1,84,completed planned treatment,4,0,0,1.0,N,N,N,
INCB 54828-205,S0100,ARM1,49.24,male,white,not_hispanic_or_latino,1,3456.5,1,84,completed planned treatment,4,0,1,1.0,N,N,N,
INCB 54828-205,S0101,ARM2,56.45,male,white,not_hispanic_or_latino,1,3554.9,1,64,disease progression,4,0,0,1.0,Y,Y,Y,273
INCB 54828-205,S0102,ARM4,65.0,male,asian,not_hispanic_or_latino,1,3602.5,1,84,completed planned treatment,4,0,0,1.0,Y,Y,N,
INCB 54828-205,S0103,ARM4,56.53,female,white,not_hispanic_or_latino,1,3725.2,1,84,completed planned treatment,4,0,0,1.0,N,N,N,
INCB 54828-205,S0104,ARM4,72.49,male,white,not_hispanic_or_latino,1,3725.5,1,84,completed planned treatment,4,0,2,1.0,Y,Y,N,
INCB 54828-205,S0105,ARM1,59.96,female,white,not_hispanic_or_latino,1,3726.9,1,84,completed planned treatment,4,0,0,1.0,N,N,N,
INCB 54828-205,S0106,ARM1,68.94,male,white,not_hispanic_or_latino,1,3767.2,1,64,disease progression,4,0,0,1.0,N,N,N,
INCB 54828-205,S0107,ARM3,72.02,female,white,not_hispanic_or_latino,1,3780.7,1,64,disease progression,4,0,0,1.0,N,N,N,
INCB 54828-205,S0108,ARM2,66.45,male,white,not_hispanic_or_latino,1,3827.1,1,84,completed planned treatment,4,0,0,1.0,N,N,N,
INCB 54828-205,S0109,ARM1,38.38,female,white,not_hispanic_or_latino,1,3847.4,1,84,completed planned treatment,4,0,0,1.0,Y,Y,N,
INCB 54828-205,S0110,ARM4,60.64,male,white,not_hispanic_or_latino,1,3893.4,1,64,disease progression,4,0,0,1.0,Y,Y,N,
INCB 54828-205,S0111,ARM3,59.12,male,white,unknown_or_not_reported,1,3923.1,1,84,completed planned treatment,4,0,0,1.0,N,N,N,
INCB 54828-205,S0112,ARM1,61.77,male,black_or_african_american,not_hispanic_or_latino,1,3926.7,1,84,completed planned treatment,4,0,0,1.0,N,N,N,
INCB 54828-205,S0113,ARM3,60.99,male,white,hispanic_or_latino,1,4032.7,1,64,disease progression,4,0,0,1.0,N,N,N,
INCB 54828-205,S0114,ARM1,57.46,female,white,not_hispanic_or_latino,1,4054.1,1,84,completed planned treatment,4,0,1,1.0,N,N,N,
INCB 54828-205,S0115,ARM2,79.33,female,white,not_hispanic_or_latino,1,4089.4,1,64,disease progression,4,0,0,1.0,N,N,N,
INCB 54828-205,S0116,ARM4,51.44,female,white,not_hispanic_or_latino,1,4160.8,1,84,completed planned treatment,4,0,0,1.0,Y,Y,N,
INCB 54828-205,S0117,ARM4,80.95,male,white,not_hispanic_or_latino,1,4252.0,1,47,death,3,0,0,1.0,N,N,Y,47
INCB 54828-205,S0118,ARM4,49.66,female,american_indian_or_alaska_native,not_hispanic_or_latino,1,4376.7,1,69,"withdrawal (subject, loss to follow-up or physician decision)",4,0,0,1.0,Y,Y,N,
INCB 54828-205,S0119,ARM1,55.47,male,asian,not_hispanic_or_latino,1,4430.7,1,84,completed planned treatment,4,0,0,1.0,Y,Y,N,
INCB 54828-205,S0120,ARM3,85.37,male,white,hispanic_or_latino,1,4460.9,1,63,"withdrawal (subject, loss to follow-up or physician decision)",3,0,1,1.0,N,N,N,
INCB 54828-205,S0121,ARM1,73.44,male,white,hispanic_or_latino,1,4505.0,1,64,disease progression,4,0,0,1.0,Y,Y,N,
INCB 54828-205,S0122,ARM3,63.87,male,white,not_hispanic_or_latino,1,4556.5,1,84,completed planned treatment,4,0,0,1.0,N,N,N,
INCB 54828-205,S0123,ARM2,79.73,male,white,not_hispanic_or_latino,1,4560.3,1,64,disease progression,4,0,0,1.0,Y,Y,N,
INCB 54828-205,S0124,ARM1,64.5,female,white,not_hispanic_or_latino,1,4583.6,1,84,completed planned treatment,4,0,1,1.0,N,N,N,
INCB 54828-205,S0125,ARM1,62.94,male,white,not_hispanic_or_latino,1,4606.6,1,84,completed planned treatment,4,0,2,1.0,N,N,N,
INCB 54828-205,S0126,ARM1,71.52,male,black_or_african_american,not_hispanic_or_latino,1,4629.6,1,64,disease progression,4,0,1,1.0,Y,Y,N,
INCB 54828-205,S0127,ARM3,64.7,male,white,not_hispanic_or_latino,1,4647.9,1,64,disease progression,4,0,0,1.0,N,N,N,
INCB 54828-205,S0128,ARM4,62.92,male,asian,not_hispanic_or_latino,1,4653.8,1,84,completed planned treatment,4,0,0,1.0,N,N,N,
INCB 54828-205,S0129,ARM2,61.01,male,black_or_african_american,not_hispanic_or_latino,1,4741.7,1,84,completed planned treatment,4,0,0,1.0,Y,Y,N,
INCB 54828-205,S0130,ARM4,76.81,male,asian,not_hispanic_or_latino,1,4744.4,1,84,completed planned treatment,4,0,1,1.0,Y,Y,N,
INCB 54828-205,S0131,ARM4,68.32,male,black_or_african_american,not_hispanic_or_latino,1,4757.1,1,84,completed planned treatment,4,0,0,1.0,Y,Y,N,
INCB 54828-205,S0132,ARM2,86.84,male,white,not_hispanic_or_latino,1,4785.8,1,84,completed planned treatment,4,0,0,1.0,N,N,N,
INCB 54828-205,S0133,ARM4,63.44,male,white,not_hispanic_or_latino,1,4840.0,1,84,completed planned treatment,4,0,1,1.0,Y,Y,N,
INCB 54828-205,S0134,ARM3,71.95,male,white,not_hispanic_or_latino,1,4843.6,1,84,completed planned treatment,4,0,0,1.0,N,N,Y,206
INCB 54828-205,S0135,ARM3,54.04,male,white,not_hispanic_or_latino,1,4848.1,1,84,completed planned treatment,4,0,0,1.0,N,N,N,
INCB 54828-205,S0136,ARM3,63.82,female,white,not_hispanic_or_latino,1,4879.5,1,84,completed planned treatment,4,0,0,1.0,N,N,N,
INCB 54828-205,S0137,ARM3,75.17,female,white,hispanic_or_latino,1,4880.1,1,55,"withdrawal (subject, loss to follow-up or physician decision)",3,0,0,1.0,Y,Y,N,
INCB 54828-205,S0138,ARM3,77.5,female,white,not_hispanic_or_latino,1,4972.8,1,84,completed planned treatment,4,0,0,1.0,N,N,N,
INCB 54828-205,S0139,ARM2,56.55,male,white,not_hispanic_or_latino,1,4985.8,1,64,disease progression,4,0,0,1.0,N,N,N,
INCB 54828-205,S0140,ARM1,70.51,female,white,not_hispanic_or_latino,1,5019.0,1,84,completed planned treatment,4,0,0,1.0,Y,Y,N,
INCB 54828-205,S0141,ARM1,67.29,male,white,not_hispanic_or_latino,1,5053.9,1,64,disease progression,4,0,0,1.0,Y,Y,N,
INCB 54828-205,S0142,ARM2,74.75,male,white,not_hispanic_or_latino,1,5126.4,1,84,completed planned treatment,4,0,0,1.0,Y,Y,N,
INCB 54828-205,S0143,ARM1,53.46,male,white,not_hispanic_or_latino,1,5132.7,1,12,"withdrawal (subject, loss to follow-up or physician decision)",1,0,0,1.0,N,N,N,
INCB 54828-205,S0144,ARM2,74.73,male,white,not_hispanic_or_latino,1,5181.7,1,64,disease progression,4,0,0,1.0,Y,Y,N,
INCB 54828-205,S0145,ARM1,55.22,male,white,not_hispanic_or_latino,1,5232.7,1,84,completed planned treatment,4,0,0,1.0,N,N,N,
INCB 54828-205,S0146,ARM1,52.8,male,white,not_hispanic_or_latino,1,5251.8,1,64,disease progression,4,0,0,0.971,Y,Y,N,
INCB 54828-205,S0147,ARM4,39.73,female,unknown_or_not_reported,not_hispanic_or_latino,1,5273.3,1,64,disease progression,4,0,0,1.0,N,N,Y,359
INCB 54828-205,S0148,ARM1,53.37,male,white,not_hispanic_or_latino,1,5277.8,1,84,completed planned treatment,4,0,0,1.0,N,N,N,
INCB 54828-205,S0149,ARM2,42.64,male,asian,not_hispanic_or_latino,1,5458.3,1,84,completed planned treatment,4,0,0,1.0,Y,Y,N,
INCB 54828-205,S0150,ARM3,70.86,female,white,not_hispanic_or_latino,1,5525.1,1,84,completed planned treatment,4,0,0,1.0,N,N,N,
INCB 54828-205,S0151,ARM1,66.17,male,white,not_hispanic_or_latino,1,5543.3,1,64,disease progression,4,0,1,1.0,N,N,N,
INCB 54828-205,S0152,ARM3,58.1,male,white,not_hispanic_or_latino,1,5546.7,1,64,disease progression,4,0,0,1.0,N,N,N,
INCB 54828-205,S0153,ARM1,59.49,male,unknown_or_not_reported,not_hispanic_or_latino,1,5571.9,1,84,completed planned treatment,4,0,0,1.0,N,N,N,
INCB 54828-205,S0154,ARM3,56.29,male,white,not_hispanic_or_latino,1,5741.7,1,26,"withdrawal (subject, loss to follow-up or physician decision)",2,0,0,1.0,Y,Y,N,
INCB 54828-205,S0155,ARM4,56.73,female,white,hispanic_or_latino,1,5769.1,1,64,disease progression,4,0,0,1.0,N,N,N,
INCB 54828-205,S0156,ARM1,77.49,male,white,not_hispanic_or_latino,1,5798.1,1,64,disease progression,4,0,0,1.0,Y,Y,N,
INCB 54828-205,S0157,ARM1,58.43,male,white,not_hispanic_or_latino,1,5815.6,1,64,disease progression,4,0,0,1.0,N,N,N,
INCB 54828-205,S0158,ARM4,64.98,male,white,not_hispanic_or_latino,1,5826.5,1,84,completed planned treatment,4,0,0,1.0,N,N,N,
INCB 54828-205,S0159,ARM4,55.01,male,white,not_hispanic_or_latino,1,5841.2,1,84,completed planned treatment,4,0,0,1.0,Y,Y,N,
INCB 54828-205,S0160,ARM2,50.91,male,white,not_hispanic_or_latino,1,5843.3,1,84,completed planned treatment,4,0,0,1.0,N,N,N,
INCB 54828-205,S0161,ARM4,78.15,female,asian,not_hispanic_or_latino,1,5902.7,1,64,disease progression,4,0,0,0.889,Y,Y,N,
INCB 54828-205,S0162,ARM4,51.34,female,white,not_hispanic_or_latino,1,5910.2,1,64,disease progression,4,0,0,1.0,Y,Y,N,
INCB 54828-205,S0163,ARM3,40.68,male,white,not_hispanic_or_latino,1,6123.3,1,84,completed planned treatment,4,0,0,1.0,Y,Y,N,
INCB 54828-205,S0164,ARM2,62.59,male,white,not_hispanic_or_latino,1,6124.9,1,84,completed planned treatment,4,0,0,1.0,Y,Y,N,
INCB 54828-205,S0165,ARM3,70.14,male,white,not_hispanic_or_latino,1,6170.4,1,64,disease progression,4,0,0,1.0,N,N,N,
INCB 54828-205,S0166,ARM2,71.15,male,unknown_or_not_reported,not_hispanic_or_latino,1,6257.7,1,84,completed planned treatment,4,0,0,1.0,Y,Y,N,
INCB 54828-205,S0167,ARM4,62.34,female,white,not_hispanic_or_latino,1,6272.4,1,84,completed planned treatment,4,0,0,0.95,Y,Y,N,
INCB 54828-205,S0168,ARM2,62.98,male,white,not_hispanic_or_latino,1,6280.6,1,64,disease progression,4,0,0,1.0,N,N,N,
INCB 54828-205,S0169,ARM4,52.02,male,black_or_african_american,not_hispanic_or_latino,1,6303.9,1,84,completed planned treatment,4,0,0,1.0,Y,Y,N,
INCB 54828-205,S0170,ARM3,76.59,male,white,not_hispanic_or_latino,1,6352.5,1,64,disease progression,4,0,0,1.0,Y,Y,N,
INCB 54828-205,S0171,ARM3,59.59,male,white,not_hispanic_or_latino,1,6364.9,1,84,completed planned treatment,4,0,0,1.0,Y,Y,N,
INCB 54828-205,S0172,ARM1,67.77,male,white,not_hispanic_or_latino,1,6365.6,1,84,completed planned treatment,4,0,0,1.0,Y,Y,N,
INCB 54828-205,S0173,ARM4,71.84,male,white,not_hispanic_or_latino,1,6386.5,1,84,completed planned treatment,4,0,2,1.0,Y,Y,N,
INCB 54828-205,S0174,ARM3,50.48,male,black_or_african_american,not_hispanic_or_latino,1,6399.5,1,72,"withdrawal (subject, loss to follow-up or physician decision)",4,0,0,1.0,N,N,N,
INCB 54828-205,S0175,ARM1,66.84,male,white,not_hispanic_or_latino,1,6469.1,1,84,completed planned treatment,4,0,0,1.0,N,N,N,
INCB 54828-205,S0176,ARM1,78.33,female,white,not_hispanic_or_latino,1,6508.4,1,84,completed planned treatment,4,0,1,1.0,Y,Y,N,
INCB 54828-205,S0177,ARM3,46.06,female,black_or_african_american,not_hispanic_or_latino,1,6515.4,1,84,completed planned treatment,4,0,1,1.0,N,N,N,
INCB 54828-205,S0178,ARM1,57.07,male,white,hispanic_or_latino,1,6602.1,1,84,completed planned treatment,4,0,0,1.0,Y,Y,N,
INCB 54828-205,S0179,ARM3,60.62,male,black_or_african_american,not_hispanic_or_latino,1,6625.7,1,84,completed planned treatment,4,0,0,1.0,N,N,N,
INCB 54828-205,S0180,ARM4,80.02,male,white,not_hispanic_or_latino,1,6648.0,1,84,completed planned treatment,4,0,0,1.0,N,N,N,
INCB 54828-205,S0181,ARM3,57.43,female,white,not_hispanic_or_latino,1,6657.7,1,84,completed planned treatment,4,0,0,1.0,Y,Y,N,
INCB 54828-205,S0182,ARM3,61.09,female,white,not_hispanic_or_latino,1,6662.6,1,84,completed planned treatment,4,0,0,1.0,N,N,N,
INCB 54828-205,S0183,ARM1,69.23,male,white,not_hispanic_or_latino,1,6711.8,1,64,disease progression,4,0,0,1.0,Y,Y,N,
INCB 54828-205,S0184,ARM1,46.12,male,white,not_hispanic_or_latino,1,6740.0,1,64,disease progression,4,0,3,0.985,N,N,N,
INCB 54828-205,S0185,ARM4,67.32,female,asian,not_hispanic_or_latino,1,6752.4,1,47,"withdrawal (subject, loss to follow-up or physician decision)",3,0,1,1.0,Y,Y,N,
INCB 54828-205,S0186,ARM2,72.49,female,white,not_hispanic_or_latino,1,6756.5,1,84,completed planned treatment,4,0,0,1.0,Y,Y,N,
INCB 54828-205,S0187,ARM1,58.04,male,white,not_hispanic_or_latino,1,6757.8,1,84,completed planned treatment,4,0,0,0.977,Y,Y,N,
INCB 54828-205,S0188,ARM4,59.86,male,asian,not_hispanic_or_latino,1,6773.8,1,3,"withdrawal (subject, loss to follow-up or physician decision)",1,0,0,1.0,N,N,N,
INCB 54828-205,S0189,ARM1,48.18,female,white,hispanic_or_latino,1,6797.8,1,26,"withdrawal (subject, loss to follow-up or physician decision)",2,0,0,1.0,N,N,N,
INCB 54828-205,S0190,ARM3,55.44,male,white,not_hispanic_or_latino,1,6798.5,1,84,completed planned treatment,4,0,0,1.0,Y,Y,N,
INCB 54828-205,S0191,ARM3,63.04,female,white,not_hispanic_or_latino,1,6812.6,1,84,completed planned treatment,4,0,0,1.0,Y,Y,N,
INCB 54828-205,S0192,ARM3,72.91,male,white,not_hispanic_or_latino,1,6816.5,1,64,disease progression,4,0,0,1.0,Y,Y,N,
INCB 54828-205,S0193,ARM1,55.84,male,white,not_hispanic_or_latino,1,6818.7,1,64,disease progression,4,0,0,1.0,N,N,N,
INCB 54828-205,S0194,ARM1,51.02,male,white,not_hispanic_or_latino,1,6852.0,1,84,completed planned treatment,4,0,0,1.0,Y,Y,N,
INCB 54828-205,S0195,ARM4,54.25,male,white,not_hispanic_or_latino,1,6880.5,1,64,disease progression,4,0,0,1.0,N,N,N,
INCB 54828-205,S0196,ARM1,64.63,female,black_or_african_american,not_hispanic_or_latino,1,6884.2,1,84,completed planned treatment,4,0,0,1.0,Y,Y,N,
INCB 54828-205,S0197,ARM2,60.44,male,white,not_hispanic_or_latino,1,6894.2,1,84,completed planned treatment,4,0,0,1.0,N,N,N,
INCB 54828-205,S0198,ARM3,62.76,male,asian,not_hispanic_or_latino,1,6923.9,1,64,disease progression,4,0,0,1.0,N,N,N,
INCB 54828-205,S0199,ARM2,69.99,male,white,not_hispanic_or_latino,1,6933.0,1,64,disease progression,4,0,0,1.0,N,N,N,
INCB 54828-205,S0200,ARM2,72.28,male,white,not_hispanic_or_latino,1,6936.7,1,54,"withdrawal (subject, loss to follow-up or physician decision)",3,0,0,1.0,N,N,N,
INCB 54828-205,S0201,ARM3,71.76,male,white,hispanic_or_latino,1,6953.9,1,64,disease progression,4,0,0,1.0,Y,Y,N,
INCB 54828-205,S0202,ARM3,84.21,male,white,not_hispanic_or_latino,1,6967.6,1,84,completed planned treatment,4,0,0,1.0,N,N,N,
INCB 54828-205,S0203,ARM3,48.99,male,white,not_hispanic_or_latino,1,6970.7,1,84,completed planned treatment,4,0,0,1.0,Y,Y,N,
INCB 54828-205,S0204,ARM3,74.13,male,white,hispanic_or_latino,1,6976.7,1,75,"withdrawal (subject, loss to follow-up or physician decision)",4,0,0,1.0,N,N,N,
INCB 54828-205,S0205,ARM3,76.35,male,white,not_hispanic_or_latino,1,7037.5,1,64,disease progression,4,0,0,1.0,Y,Y,N,
INCB 54828-205,S0206,ARM2,76.17,male,white,not_hispanic_or_latino,1,7043.6,1,84,completed planned treatment,4,0,0,1.0,Y,Y,N,
INCB 54828-205,S0207,ARM4,80.92,male,white,not_hispanic_or_latino,1,7066.1,1,64,disease progression,4,0,0,1.0,N,N,N,
INCB 54828-205,S0208,ARM4,50.64,female,unknown_or_not_reported,not_hispanic_or_latino,1,7074.4,1,84,completed planned treatment,4,0,2,1.0,Y,Y,N,
INCB 54828-205,S0209,ARM3,69.2,female,white,not_hispanic_or_latino,1,7087.9,1,84,completed planned treatment,4,0,0,1.0,Y,Y,N,
INCB 54828-205,S0210,ARM2,58.75,male,white,not_hispanic_or_latino,1,7106.6,1,84,completed planned treatment,4,0,0,1.0,Y,Y,N,
INCB 54828-205,S0211,ARM2,71.35,male,white,not_hispanic_or_latino,1,7138.5,1,59,adverse event (registry discontinuation rate),3,0,0,1.0,N,N,N,
INCB 54828-205,S0212,ARM3,63.65,male,white,not_hispanic_or_latino,1,7143.7,1,84,completed planned treatment,4,0,1,1.0,N,N,N,
INCB 54828-205,S0213,ARM4,69.52,male,white,unknown_or_not_reported,1,7147.4,1,84,completed planned treatment,4,0,0,1.0,N,N,N,
INCB 54828-205,S0214,ARM1,45.38,male,white,hispanic_or_latino,1,7215.9,1,84,completed planned treatment,4,0,0,0.977,Y,Y,N,
INCB 54828-205,S0215,ARM4,68.11,male,white,not_hispanic_or_latino,1,7230.2,1,84,completed planned treatment,4,0,2,1.0,N,N,N,
INCB 54828-205,S0216,ARM1,66.02,male,white,not_hispanic_or_latino,1,7270.2,1,64,disease progression,4,0,0,1.0,N,N,Y,353
INCB 54828-205,S0217,ARM3,64.15,male,white,not_hispanic_or_latino,1,7302.7,1,84,completed planned treatment,4,0,0,1.0,Y,Y,N,
INCB 54828-205,S0218,ARM2,74.62,male,white,not_hispanic_or_latino,1,7331.9,1,64,disease progression,4,0,0,1.0,Y,Y,Y,607
INCB 54828-205,S0219,ARM1,51.74,male,black_or_african_american,unknown_or_not_reported,1,7344.0,1,3,adverse event (registry discontinuation rate),1,0,0,1.0,Y,Y,N,
INCB 54828-205,S0220,ARM2,58.72,male,white,not_hispanic_or_latino,1,7354.9,1,84,completed planned treatment,4,0,0,1.0,N,N,N,
INCB 54828-205,S0221,ARM4,74.74,male,asian,not_hispanic_or_latino,1,7481.1,1,84,completed planned treatment,4,0,0,1.0,N,N,N,
INCB 54828-205,S0222,ARM4,64.73,female,white,not_hispanic_or_latino,1,7492.9,1,84,completed planned treatment,4,0,0,1.0,N,N,N,
INCB 54828-205,S0223,ARM2,68.79,female,white,not_hispanic_or_latino,1,7512.8,1,84,completed planned treatment,4,0,0,1.0,N,N,N,
INCB 54828-205,S0224,ARM2,78.32,female,white,not_hispanic_or_latino,1,7538.8,1,64,disease progression,4,0,0,1.0,Y,Y,N,
INCB 54828-205,S0225,ARM3,48.69,male,white,not_hispanic_or_latino,1,7561.8,1,82,"withdrawal (subject, loss to follow-up or physician decision)",4,0,0,1.0,N,N,N,
INCB 54828-205,S0226,ARM2,77.76,male,white,not_hispanic_or_latino,1,7599.1,1,84,completed planned treatment,4,0,0,1.0,N,N,N,
INCB 54828-205,S0227,ARM2,75.29,male,white,not_hispanic_or_latino,1,7605.7,1,84,completed planned treatment,4,0,0,1.0,Y,Y,Y,419
INCB 54828-205,S0228,ARM1,59.86,male,asian,hispanic_or_latino,1,7634.9,1,64,disease progression,4,0,1,1.0,N,N,N,
INCB 54828-205,S0229,ARM4,49.04,male,white,not_hispanic_or_latino,1,7702.8,1,64,disease progression,4,0,0,1.0,N,N,N,
INCB 54828-205,S0230,ARM3,80.95,male,white,not_hispanic_or_latino,1,7730.2,1,84,completed planned treatment,4,0,0,1.0,Y,Y,N,
INCB 54828-205,S0231,ARM1,70.44,male,white,not_hispanic_or_latino,1,7740.9,1,64,"withdrawal (subject, loss to follow-up or physician decision)",4,0,0,1.0,Y,Y,N,
INCB 54828-205,S0232,ARM1,57.3,male,white,hispanic_or_latino,1,7742.4,1,12,adverse event (registry discontinuation rate),1,0,0,1.0,N,N,N,
INCB 54828-205,S0233,ARM1,60.65,male,white,unknown_or_not_reported,1,7754.4,1,64,disease progression,4,0,0,1.0,N,N,N,
INCB 54828-205,S0234,ARM4,69.59,female,white,not_hispanic_or_latino,1,7755.0,1,64,disease progression,4,0,0,1.0,N,N,N,
INCB 54828-205,S0235,ARM3,66.73,male,unknown_or_not_reported,not_hispanic_or_latino,1,7763.8,1,84,completed planned treatment,4,0,1,1.0,N,N,N,
INCB 54828-205,S0236,ARM3,58.05,male,white,not_hispanic_or_latino,1,7774.0,1,84,completed planned treatment,4,0,0,1.0,N,N,N,
INCB 54828-205,S0237,ARM4,74.4,female,asian,not_hispanic_or_latino,1,7816.9,1,84,completed planned treatment,4,0,0,1.0,N,N,N,
INCB 54828-205,S0238,ARM1,64.08,male,white,not_hispanic_or_latino,1,7902.7,1,84,completed planned treatment,4,0,0,1.0,N,N,N,
INCB 54828-205,S0239,ARM3,56.67,male,white,not_hispanic_or_latino,1,7907.9,1,64,disease progression,4,0,0,1.0,N,N,N,
INCB 54828-205,S0240,ARM1,51.55,male,white,not_hispanic_or_latino,1,7941.6,1,84,completed planned treatment,4,0,0,1.0,N,N,N,
INCB 54828-205,S0241,ARM3,58.98,male,white,not_hispanic_or_latino,1,8048.9,1,84,completed planned treatment,4,0,1,1.0,Y,Y,N,
INCB 54828-205,S0242,ARM3,63.62,male,white,not_hispanic_or_latino,1,8114.2,1,84,completed planned treatment,4,0,0,1.0,Y,Y,N,
INCB 54828-205,S0243,ARM1,51.69,male,black_or_african_american,not_hispanic_or_latino,1,8134.1,1,84,completed planned treatment,4,0,0,1.0,N,N,Y,500
INCB 54828-205,S0244,ARM3,48.25,male,asian,not_hispanic_or_latino,1,8184.8,1,84,completed planned treatment,4,0,1,1.0,Y,Y,N,
INCB 54828-205,S0245,ARM4,78.91,male,white,not_hispanic_or_latino,1,8228.9,1,84,completed planned treatment,4,0,1,1.0,N,N,N,
INCB 54828-205,S0246,ARM1,76.84,male,white,not_hispanic_or_latino,1,8244.7,1,84,completed planned treatment,4,0,0,1.0,N,N,N,
INCB 54828-205,S0247,ARM4,64.92,male,black_or_african_american,not_hispanic_or_latino,1,8249.1,1,84,completed planned treatment,4,0,0,1.0,N,N,N,
INCB 54828-205,S0248,ARM4,68.75,female,white,unknown_or_not_reported,1,8251.0,1,84,completed planned treatment,4,0,2,1.0,N,N,N,
INCB 54828-205,S0249,ARM3,71.36,female,white,hispanic_or_latino,1,8261.2,1,84,completed planned treatment,4,0,0,1.0,N,N,N,
INCB 54828-205,S0250,ARM1,47.25,male,white,not_hispanic_or_latino,1,8298.4,1,84,completed planned treatment,4,0,0,1.0,N,N,N,
INCB 54828-205,S0251,ARM3,67.95,female,white,not_hispanic_or_latino,1,8392.6,1,3,"withdrawal (subject, loss to follow-up or physician decision)",1,0,0,1.0,Y,Y,N,
INCB 54828-205,S0252,ARM4,59.93,male,black_or_african_american,not_hispanic_or_latino,1,8453.2,1,64,disease progression,4,0,0,0.944,Y,Y,Y,604
INCB 54828-205,S0253,ARM1,81.28,male,white,unknown_or_not_reported,1,8459.7,1,84,completed planned treatment,4,0,0,1.0,N,N,N,
INCB 54828-205,S0254,ARM3,70.59,male,white,not_hispanic_or_latino,1,8502.1,1,84,completed planned treatment,4,0,0,1.0,N,N,N,
INCB 54828-205,S0255,ARM2,57.23,female,asian,not_hispanic_or_latino,1,8520.5,1,84,completed planned treatment,4,0,0,1.0,N,N,N,
INCB 54828-205,S0256,ARM2,58.99,female,white,not_hispanic_or_latino,1,8562.7,1,64,disease progression,4,0,0,1.0,Y,Y,N,
INCB 54828-205,S0257,ARM1,69.15,male,white,unknown_or_not_reported,1,8594.9,1,39,adverse event (registry discontinuation rate),2,0,0,1.0,Y,Y,N,
INCB 54828-205,S0258,ARM2,70.19,male,white,not_hispanic_or_latino,1,8748.2,1,84,completed planned treatment,4,0,0,1.0,N,N,N,
INCB 54828-205,S0259,ARM4,62.93,male,white,not_hispanic_or_latino,1,8777.7,1,84,completed planned treatment,4,0,0,1.0,Y,Y,N,
INCB 54828-205,S0260,ARM3,33.75,female,white,not_hispanic_or_latino,1,8817.5,1,64,disease progression,4,0,0,1.0,Y,Y,N,
INCB 54828-205,S0261,ARM2,83.83,female,white,unknown_or_not_reported,1,8862.4,1,84,completed planned treatment,4,0,0,1.0,Y,Y,N,
INCB 54828-205,S0262,ARM3,53.01,female,white,hispanic_or_latino,1,8880.1,1,64,disease progression,4,0,0,1.0,Y,Y,N,
INCB 54828-205,S0263,ARM2,80.82,male,white,not_hispanic_or_latino,1,8887.6,1,64,disease progression,4,0,0,1.0,N,N,N,
INCB 54828-205,S0264,ARM4,49.51,female,more_than_one_race,unknown_or_not_reported,1,8947.9,1,64,disease progression,4,0,0,1.0,Y,Y,N,
INCB 54828-205,S0265,ARM1,67.28,male,unknown_or_not_reported,not_hispanic_or_latino,1,8986.1,1,84,completed planned treatment,4,0,0,1.0,N,N,N,
INCB 54828-205,S0266,ARM2,57.78,male,white,not_hispanic_or_latino,1,9012.7,1,84,completed planned treatment,4,0,0,1.0,Y,Y,N,
INCB 54828-205,S0267,ARM1,65.27,male,white,not_hispanic_or_latino,1,9058.1,1,64,disease progression,4,0,0,1.0,N,N,N,
INCB 54828-205,S0268,ARM2,53.92,male,white,not_hispanic_or_latino,1,9078.1,1,64,disease progression,4,0,0,1.0,N,N,N,
INCB 54828-205,S0269,ARM2,68.57,male,white,not_hispanic_or_latino,1,9082.2,1,84,completed planned treatment,4,0,0,1.0,Y,Y,N,
INCB 54828-205,S0270,ARM2,74.38,female,white,not_hispanic_or_latino,1,9087.2,1,84,completed planned treatment,4,0,0,1.0,Y,Y,N,
INCB 54828-205,S0271,ARM1,70.71,male,unknown_or_not_reported,not_hispanic_or_latino,1,9113.0,1,84,completed planned treatment,4,0,0,1.0,N,N,Y,684
INCB 54828-205,S0272,ARM3,64.42,male,white,not_hispanic_or_latino,1,9152.6,1,84,completed planned treatment,4,0,0,1.0,N,N,N,
INCB 54828-205,S0273,ARM1,71.96,female,white,not_hispanic_or_latino,1,9172.2,1,64,disease progression,4,0,0,1.0,Y,Y,N,
INCB 54828-205,S0274,ARM2,63.22,female,asian,not_hispanic_or_latino,1,9195.5,1,84,completed planned treatment,4,0,0,1.0,N,N,N,
INCB 54828-205,S0275,ARM3,64.16,male,white,not_hispanic_or_latino,1,9201.8,1,64,disease progression,4,0,0,1.0,Y,Y,N,
INCB 54828-205,S0276,ARM3,61.23,male,black_or_african_american,not_hispanic_or_latino,1,9202.8,1,84,completed planned treatment,4,0,0,1.0,Y,Y,N,
INCB 54828-205,S0277,ARM3,73.7,male,white,not_hispanic_or_latino,1,9203.7,1,84,completed planned treatment,4,0,0,1.0,Y,Y,N,
INCB 54828-205,S0278,ARM4,77.98,male,white,not_hispanic_or_latino,1,9210.9,1,84,completed planned treatment,4,0,0,1.0,N,N,N,
INCB 54828-205,S0279,ARM4,79.77,male,white,not_hispanic_or_latino,1,9247.0,1,64,disease progression,4,0,0,1.0,N,N,N,
INCB 54828-205,S0280,ARM3,61.8,male,white,not_hispanic_or_latino,1,9295.0,1,84,completed planned treatment,4,0,0,1.0,N,N,N,
INCB 54828-205,S0281,ARM3,72.29,male,white,not_hispanic_or_latino,1,9318.2,1,84,completed planned treatment,4,0,0,1.0,Y,Y,N,
INCB 54828-205,S0282,ARM4,74.95,female,white,not_hispanic_or_latino,1,9333.5,1,84,completed planned treatment,4,0,0,1.0,N,N,N,
INCB 54828-205,S0283,ARM1,57.07,female,unknown_or_not_reported,not_hispanic_or_latino,1,9336.8,1,64,disease progression,4,0,0,1.0,N,N,N,
INCB 54828-205,S0284,ARM3,36.46,female,white,not_hispanic_or_latino,1,9343.3,1,84,completed planned treatment,4,0,0,1.0,N,N,N,
INCB 54828-205,S0285,ARM1,51.52,male,white,not_hispanic_or_latino,1,9409.4,1,64,disease progression,4,0,1,1.0,N,N,N,
INCB 54828-205,S0286,ARM1,65.76,female,native_hawaiian_or_other_pacific_islander,not_hispanic_or_latino,1,9447.7,1,84,completed planned treatment,4,0,0,1.0,N,N,N,
INCB 54828-205,S0287,ARM3,76.05,male,white,not_hispanic_or_latino,1,9490.7,1,84,completed planned treatment,4,0,2,1.0,Y,Y,N,
INCB 54828-205,S0288,ARM3,58.79,male,white,not_hispanic_or_latino,1,9501.2,1,84,completed planned treatment,4,0,0,1.0,Y,Y,N,
INCB 54828-205,S0289,ARM2,57.36,female,white,not_hispanic_or_latino,1,9527.5,1,84,completed planned treatment,4,0,0,1.0,N,N,N,
INCB 54828-205,S0290,ARM4,53.61,male,white,not_hispanic_or_latino,1,9580.2,1,84,completed planned treatment,4,0,0,1.0,Y,Y,N,
INCB 54828-205,S0291,ARM2,81.83,female,white,not_hispanic_or_latino,1,9695.4,1,64,disease progression,4,0,0,1.0,Y,Y,N,
INCB 54828-205,S0292,ARM4,57.89,female,white,not_hispanic_or_latino,1,9695.8,1,84,completed planned treatment,4,0,0,1.0,Y,Y,Y,651
INCB 54828-205,S0293,ARM4,60.56,male,black_or_african_american,not_hispanic_or_latino,1,9699.0,1,64,disease progression,4,0,0,1.0,Y,Y,N,
INCB 54828-205,S0294,ARM1,48.94,male,white,not_hispanic_or_latino,1,9758.7,1,84,completed planned treatment,4,0,0,1.0,N,N,N,
INCB 54828-205,S0295,ARM3,70.43,female,white,not_hispanic_or_latino,1,9777.1,1,18,death,1,0,0,1.0,N,N,Y,18
INCB 54828-205,S0296,ARM4,68.6,male,white,not_hispanic_or_latino,1,9850.7,1,64,disease progression,4,0,1,1.0,N,N,N,
INCB 54828-205,S0297,ARM1,69.6,male,white,not_hispanic_or_latino,1,9874.9,1,84,completed planned treatment,4,0,0,1.0,Y,Y,N,
INCB 54828-205,S0298,ARM2,67.12,female,black_or_african_american,not_hispanic_or_latino,1,9892.9,1,84,completed planned treatment,4,0,0,1.0,N,N,N,
INCB 54828-205,S0299,ARM2,46.92,male,unknown_or_not_reported,hispanic_or_latino,1,9902.1,1,84,completed planned treatment,4,0,0,1.0,N,N,N,
INCB 54828-205,S0300,ARM1,77.39,male,white,not_hispanic_or_latino,1,9921.2,1,84,completed planned treatment,4,0,0,1.0,N,N,N,
INCB 54828-205,S0301,ARM4,79.48,male,white,not_hispanic_or_latino,1,9998.9,1,38,"withdrawal (subject, loss to follow-up or physician decision)",2,0,1,1.0,N,N,N,
INCB 54828-205,S0302,ARM3,51.98,male,black_or_african_american,not_hispanic_or_latino,1,10023.2,1,64,disease progression,4,0,0,1.0,N,N,N,
INCB 54828-205,S0303,ARM1,64.82,male,black_or_african_american,not_hispanic_or_latino,1,10076.1,1,84,completed planned treatment,4,0,0,1.0,Y,Y,N,
INCB 54828-205,S0304,ARM3,64.62,male,black_or_african_american,not_hispanic_or_latino,1,10096.9,1,64,disease progression,4,0,0,1.0,N,N,N,
INCB 54828-205,S0305,ARM1,66.58,male,white,not_hispanic_or_latino,1,10135.2,1,64,disease progression,4,0,0,1.0,N,N,N,
INCB 54828-205,S0306,ARM2,70.15,female,white,not_hispanic_or_latino,1,10169.6,1,64,disease progression,4,0,0,1.0,N,N,N,
INCB 54828-205,S0307,ARM3,67.73,male,white,not_hispanic_or_latino,1,10211.7,1,64,disease progression,4,0,0,1.0,Y,Y,N,
INCB 54828-205,S0308,ARM4,72.29,male,white,not_hispanic_or_latino,1,10238.5,1,84,completed planned treatment,4,0,0,1.0,N,N,N,
INCB 54828-205,S0309,ARM4,73.04,female,black_or_african_american,not_hispanic_or_latino,1,10253.5,1,64,disease progression,4,0,0,1.0,Y,Y,N,
INCB 54828-205,S0310,ARM2,55.98,male,white,not_hispanic_or_latino,1,10269.9,1,84,completed planned treatment,4,0,0,1.0,N,N,N,
INCB 54828-205,S0311,ARM1,61.62,female,white,not_hispanic_or_latino,1,10357.5,1,84,completed planned treatment,4,0,1,1.0,Y,Y,N,
INCB 54828-205,S0312,ARM1,58.16,male,white,not_hispanic_or_latino,1,10377.7,1,64,disease progression,4,0,1,1.0,N,N,N,
INCB 54828-205,S0313,ARM1,59.74,male,white,not_hispanic_or_latino,1,10437.9,1,64,disease progression,4,0,0,1.0,N,N,N,
INCB 54828-205,S0314,ARM3,58.76,male,white,not_hispanic_or_latino,1,10481.3,1,84,completed planned treatment,4,0,0,1.0,N,N,N,
INCB 54828-205,S0315,ARM1,54.1,female,white,not_hispanic_or_latino,1,10482.8,1,84,completed planned treatment,4,0,0,1.0,Y,Y,N,
INCB 54828-205,S0316,ARM3,64.52,female,white,not_hispanic_or_latino,1,10503.8,1,64,disease progression,4,0,0,1.0,N,N,N,
INCB 54828-205,S0317,ARM3,49.58,male,white,not_hispanic_or_latino,1,10630.6,1,84,completed planned treatment,4,0,1,1.0,N,N,N,
INCB 54828-205,S0318,ARM3,62.6,female,white,not_hispanic_or_latino,1,10736.1,1,84,completed planned treatment,4,0,0,1.0,N,N,Y,697
INCB 54828-205,S0319,ARM1,79.15,female,white,not_hispanic_or_latino,1,10841.8,1,84,completed planned treatment,4,0,0,1.0,N,N,N,
INCB 54828-205,S0320,ARM3,74.5,female,white,hispanic_or_latino,1,10845.9,1,84,completed planned treatment,4,0,0,1.0,Y,Y,N,
INCB 54828-205,S0321,ARM1,58.62,female,white,not_hispanic_or_latino,1,10882.2,1,64,disease progression,4,0,0,1.0,Y,Y,N,
INCB 54828-205,S0322,ARM2,64.7,male,white,not_hispanic_or_latino,1,10914.4,1,84,completed planned treatment,4,0,0,1.0,Y,Y,N,
INCB 54828-205,S0323,ARM2,77.86,male,white,not_hispanic_or_latino,1,10925.6,1,55,adverse event (registry discontinuation rate),3,0,0,1.0,Y,Y,N,
INCB 54828-205,S0324,ARM2,55.89,male,white,hispanic_or_latino,1,10928.5,1,84,completed planned treatment,4,0,0,1.0,N,N,N,
INCB 54828-205,S0325,ARM4,56.64,male,asian,not_hispanic_or_latino,1,10930.7,1,64,disease progression,4,0,0,1.0,N,N,N,
INCB 54828-205,S0326,ARM3,61.21,male,white,not_hispanic_or_latino,1,10946.7,1,64,disease progression,4,0,0,1.0,N,N,Y,473
INCB 54828-205,S0327,ARM4,57.06,female,white,not_hispanic_or_latino,1,10947.6,1,43,"withdrawal (subject, loss to follow-up or physician decision)",3,0,2,1.0,Y,Y,N,
INCB 54828-205,S0328,ARM2,73.52,male,asian,not_hispanic_or_latino,1,10951.8,1,84,completed planned treatment,4,0,0,1.0,N,N,Y,298
INCB 54828-205,S0329,ARM2,59.59,female,white,not_hispanic_or_latino,1,10954.6,1,64,disease progression,4,0,0,1.0,Y,Y,N,
INCB 54828-205,S0330,ARM1,78.3,male,white,not_hispanic_or_latino,1,10993.9,1,84,completed planned treatment,4,0,0,1.0,N,N,N,
INCB 54828-205,S0331,ARM2,81.3,male,unknown_or_not_reported,not_hispanic_or_latino,1,11026.3,1,84,completed planned treatment,4,0,0,1.0,Y,Y,N,
INCB 54828-205,S0332,ARM2,46.09,male,white,not_hispanic_or_latino,1,11037.2,1,84,completed planned treatment,4,0,0,1.0,N,N,N,
INCB 54828-205,S0333,ARM3,47.41,male,white,unknown_or_not_reported,1,11118.0,1,84,completed planned treatment,4,0,1,1.0,N,N,N,
INCB 54828-205,S0334,ARM2,52.13,male,white,not_hispanic_or_latino,1,11139.2,1,64,disease progression,4,0,0,1.0,N,N,N,
INCB 54828-205,S0335,ARM2,61.23,male,white,not_hispanic_or_latino,1,11210.9,1,25,"withdrawal (subject, loss to follow-up or physician decision)",2,0,0,1.0,N,N,N,
INCB 54828-205,S0336,ARM3,81.71,female,white,not_hispanic_or_latino,1,11216.2,1,84,completed planned treatment,4,0,0,1.0,N,N,N,
INCB 54828-205,S0337,ARM4,64.93,male,white,not_hispanic_or_latino,1,11260.4,1,84,completed planned treatment,4,0,1,1.0,Y,Y,N,
INCB 54828-205,S0338,ARM4,60.23,male,white,not_hispanic_or_latino,1,11270.1,1,84,completed planned treatment,4,0,0,1.0,N,N,N,
INCB 54828-205,S0339,ARM1,64.42,male,white,not_hispanic_or_latino,1,11290.9,1,28,"withdrawal (subject, loss to follow-up or physician decision)",2,0,0,1.0,N,N,N,
INCB 54828-205,S0340,ARM4,62.33,male,white,not_hispanic_or_latino,1,11366.0,1,84,completed planned treatment,4,0,2,1.0,N,N,N,
INCB 54828-205,S0341,ARM4,60.33,male,white,not_hispanic_or_latino,1,11379.1,1,84,completed planned treatment,4,0,0,1.0,N,N,N,
INCB 54828-205,S0342,ARM4,67.77,male,white,not_hispanic_or_latino,1,11455.3,1,84,completed planned treatment,4,0,0,1.0,Y,Y,N,
INCB 54828-205,S0343,ARM1,52.86,male,white,not_hispanic_or_latino,1,11529.2,1,84,completed planned treatment,4,0,0,1.0,N,N,N,
INCB 54828-205,S0344,ARM2,59.1,male,white,not_hispanic_or_latino,1,11562.9,1,84,completed planned treatment,4,0,0,1.0,Y,Y,N,
INCB 54828-205,S0345,ARM1,68.34,female,black_or_african_american,not_hispanic_or_latino,1,11580.4,1,64,disease progression,4,0,0,1.0,Y,Y,N,
INCB 54828-205,S0346,ARM2,54.26,male,white,not_hispanic_or_latino,1,11665.5,1,41,"withdrawal (subject, loss to follow-up or physician decision)",2,0,0,1.0,N,N,Y,624
INCB 54828-205,S0347,ARM4,44.99,male,white,not_hispanic_or_latino,1,11690.6,1,64,disease progression,4,0,0,1.0,N,N,N,
INCB 54828-205,S0348,ARM4,48.98,male,white,not_hispanic_or_latino,1,11709.2,1,84,completed planned treatment,4,0,0,1.0,Y,Y,N,
INCB 54828-205,S0349,ARM3,53.74,male,white,not_hispanic_or_latino,1,11779.4,1,84,completed planned treatment,4,0,0,1.0,N,N,N,
INCB 54828-205,S0350,ARM1,75.16,male,white,not_hispanic_or_latino,1,11784.7,1,84,completed planned treatment,4,0,0,1.0,N,N,N,
INCB 54828-205,S0351,ARM4,52.93,male,black_or_african_american,not_hispanic_or_latino,1,11859.9,1,68,"withdrawal (subject, loss to follow-up or physician decision)",4,0,0,0.842,Y,Y,Y,565
INCB 54828-205,S0352,ARM4,78.22,male,white,not_hispanic_or_latino,1,11863.0,1,35,"withdrawal (subject, loss to follow-up or physician decision)",2,0,0,1.0,Y,Y,N,
INCB 54828-205,S0353,ARM4,65.09,male,white,not_hispanic_or_latino,1,11880.5,1,64,disease progression,4,0,0,1.0,Y,Y,N,
INCB 54828-205,S0354,ARM2,64.43,female,white,not_hispanic_or_latino,1,11901.0,1,84,completed planned treatment,4,0,0,1.0,N,N,N,
INCB 54828-205,S0355,ARM2,64.52,female,white,not_hispanic_or_latino,1,11915.5,1,8,adverse event (registry discontinuation rate),1,0,0,1.0,Y,Y,N,
INCB 54828-205,S0356,ARM3,58.68,female,white,not_hispanic_or_latino,1,11962.8,1,84,completed planned treatment,4,0,2,1.0,Y,Y,N,
INCB 54828-205,S0357,ARM1,58.96,male,white,not_hispanic_or_latino,1,11966.8,1,64,disease progression,4,0,2,1.0,N,N,N,
INCB 54828-205,S0358,ARM3,71.65,male,white,not_hispanic_or_latino,1,11977.4,1,84,completed planned treatment,4,0,0,1.0,Y,Y,N,
INCB 54828-205,S0359,ARM4,68.82,male,white,not_hispanic_or_latino,1,11979.6,1,34,"withdrawal (subject, loss to follow-up or physician decision)",2,0,0,1.0,N,N,N,
INCB 54828-205,S0360,ARM2,56.38,male,white,not_hispanic_or_latino,1,11986.9,1,84,completed planned treatment,4,0,0,1.0,Y,Y,N,
INCB 54828-205,S0361,ARM3,51.69,male,white,not_hispanic_or_latino,1,11996.8,1,84,completed planned treatment,4,0,0,1.0,Y,Y,N,
INCB 54828-205,S0362,ARM3,50.79,male,white,not_hispanic_or_latino,1,12019.4,1,37,death,2,0,0,1.0,N,N,Y,37
INCB 54828-205,S0363,ARM2,67.86,male,white,not_hispanic_or_latino,1,12054.6,1,84,completed planned treatment,4,0,0,1.0,N,N,N,
INCB 54828-205,S0364,ARM1,42.69,female,white,not_hispanic_or_latino,1,12093.0,1,64,disease progression,4,0,0,1.0,Y,Y,N,
INCB 54828-205,S0365,ARM1,79.99,male,white,not_hispanic_or_latino,1,12096.7,1,84,completed planned treatment,4,0,1,1.0,N,N,N,
INCB 54828-205,S0366,ARM2,66.07,male,white,not_hispanic_or_latino,1,12107.2,1,84,completed planned treatment,4,0,0,1.0,Y,Y,N,
INCB 54828-205,S0367,ARM4,77.35,male,unknown_or_not_reported,not_hispanic_or_latino,1,12119.5,1,16,"withdrawal (subject, loss to follow-up or physician decision)",1,0,1,1.0,N,N,N,
INCB 54828-205,S0368,ARM3,68.84,male,asian,not_hispanic_or_latino,1,12180.0,1,12,"withdrawal (subject, loss to follow-up or physician decision)",1,0,0,1.0,N,N,N,
INCB 54828-205,S0369,ARM2,68.19,female,white,not_hispanic_or_latino,1,12244.0,1,84,completed planned treatment,4,0,0,1.0,N,N,N,
INCB 54828-205,S0370,ARM4,58.38,male,white,not_hispanic_or_latino,1,12315.4,1,64,disease progression,4,0,2,1.0,Y,Y,N,
INCB 54828-205,S0371,ARM4,55.62,male,white,not_hispanic_or_latino,1,12408.3,1,84,completed planned treatment,4,0,1,1.0,N,N,N,
INCB 54828-205,S0372,ARM2,64.63,male,white,hispanic_or_latino,1,12417.2,1,64,disease progression,4,0,0,1.0,N,N,N,
