USUBJID,ARMCD,PARAMCD,PARAM,AVAL_DAYS,CNSR,EVNTDESC
S0001,ARM3,PFS,Progression-free survival (detected at assessment),64,1,censored at last tumour assessment
S0001,ARM3,OS,Overall survival (death in the simulated horizon),168,1,censored at last simulated contact
S0002,ARM1,PFS,Progression-free survival (detected at assessment),64,0,progression detected at scheduled tumour assessment
S0002,ARM1,OS,Overall survival (death in the simulated horizon),148,1,censored at last simulated contact
S0003,ARM2,PFS,Progression-free survival (detected at assessment),64,0,progression detected at scheduled tumour assessment
S0003,ARM2,OS,Overall survival (death in the simulated horizon),148,1,censored at last simulated contact
S0004,ARM4,PFS,Progression-free survival (detected at assessment),64,1,censored at last tumour assessment
S0004,ARM4,OS,Overall survival (death in the simulated horizon),168,1,censored at last simulated contact
S0005,ARM1,PFS,Progression-free survival (detected at assessment),64,0,progression detected at scheduled tumour assessment
S0005,ARM1,OS,Overall survival (death in the simulated horizon),635,0,death
S0006,ARM3,PFS,Progression-free survival (detected at assessment),56,1,censored at last tumour assessment
S0006,ARM3,OS,Overall survival (death in the simulated horizon),140,1,censored at last simulated contact
S0007,ARM4,PFS,Progression-free survival (detected at assessment),64,1,censored at last tumour assessment
S0007,ARM4,OS,Overall survival (death in the simulated horizon),168,1,censored at last simulated contact
S0008,ARM2,PFS,Progression-free survival (detected at assessment),64,0,progression detected at scheduled tumour assessment
S0008,ARM2,OS,Overall survival (death in the simulated horizon),148,1,censored at last simulated contact
S0009,ARM1,PFS,Progression-free survival (detected at assessment),64,1,censored at last tumour assessment
S0009,ARM1,OS,Overall survival (death in the simulated horizon),168,1,censored at last simulated contact
S0010,ARM1,PFS,Progression-free survival (detected at assessment),64,1,censored at last tumour assessment
S0010,ARM1,OS,Overall survival (death in the simulated horizon),168,1,censored at last simulated contact
S0011,ARM4,PFS,Progression-free survival (detected at assessment),64,1,censored at last tumour assessment
S0011,ARM4,OS,Overall survival (death in the simulated horizon),168,1,censored at last simulated contact
S0012,ARM1,PFS,Progression-free survival (detected at assessment),64,0,progression detected at scheduled tumour assessment
S0012,ARM1,OS,Overall survival (death in the simulated horizon),662,0,death
S0013,ARM2,PFS,Progression-free survival (detected at assessment),64,1,censored at last tumour assessment
S0013,ARM2,OS,Overall survival (death in the simulated horizon),168,1,censored at last simulated contact
S0014,ARM1,PFS,Progression-free survival (detected at assessment),64,1,censored at last tumour assessment
S0014,ARM1,OS,Overall survival (death in the simulated horizon),168,1,censored at last simulated contact
S0015,ARM4,PFS,Progression-free survival (detected at assessment),64,1,censored at last tumour assessment
S0015,ARM4,OS,Overall survival (death in the simulated horizon),168,1,censored at last simulated contact
S0016,ARM4,PFS,Progression-free survival (detected at assessment),64,1,censored at last tumour assessment
S0016,ARM4,OS,Overall survival (death in the simulated horizon),168,1,censored at last simulated contact
S0017,ARM4,PFS,Progression-free survival (detected at assessment),64,1,censored at last tumour assessment
S0017,ARM4,OS,Overall survival (death in the simulated horizon),168,1,censored at last simulated contact
S0018,ARM4,PFS,Progression-free survival (detected at assessment),64,1,censored at last tumour assessment
S0018,ARM4,OS,Overall survival (death in the simulated horizon),168,1,censored at last simulated contact
S0019,ARM1,PFS,Progression-free survival (detected at assessment),64,1,censored at last tumour assessment
S0019,ARM1,OS,Overall survival (death in the simulated horizon),168,1,censored at last simulated contact
S0020,ARM2,PFS,Progression-free survival (detected at assessment),64,0,progression detected at scheduled tumour assessment
S0020,ARM2,OS,Overall survival (death in the simulated horizon),148,1,censored at last simulated contact
S0021,ARM2,PFS,Progression-free survival (detected at assessment),64,1,censored at last tumour assessment
S0021,ARM2,OS,Overall survival (death in the simulated horizon),168,1,censored at last simulated contact
S0022,ARM1,PFS,Progression-free survival (detected at assessment),17,1,censored at last tumour assessment
S0022,ARM1,OS,Overall survival (death in the simulated horizon),101,1,censored at last simulated contact
S0023,ARM3,PFS,Progression-free survival (detected at assessment),64,1,censored at last tumour assessment
S0023,ARM3,OS,Overall survival (death in the simulated horizon),168,1,censored at last simulated contact
S0024,ARM1,PFS,Progression-free survival (detected at assessment),64,1,censored at last tumour assessment
S0024,ARM1,OS,Overall survival (death in the simulated horizon),168,1,censored at last simulated contact
S0025,ARM2,PFS,Progression-free survival (detected at assessment),40,1,censored at last tumour assessment
S0025,ARM2,OS,Overall survival (death in the simulated horizon),124,1,censored at last simulated contact
S0026,ARM1,PFS,Progression-free survival (detected at assessment),64,1,censored at last tumour assessment
S0026,ARM1,OS,Overall survival (death in the simulated horizon),168,1,censored at last simulated contact
S0027,ARM3,PFS,Progression-free survival (detected at assessment),64,1,censored at last tumour assessment
S0027,ARM3,OS,Overall survival (death in the simulated horizon),168,1,censored at last simulated contact
S0028,ARM2,PFS,Progression-free survival (detected at assessment),64,1,censored at last tumour assessment
S0028,ARM2,OS,Overall survival (death in the simulated horizon),168,1,censored at last simulated contact
S0029,ARM1,PFS,Progression-free survival (detected at assessment),12,1,censored at last tumour assessment
S0029,ARM1,OS,Overall survival (death in the simulated horizon),96,1,censored at last simulated contact
S0030,ARM2,PFS,Progression-free survival (detected at assessment),64,1,censored at last tumour assessment
S0030,ARM2,OS,Overall survival (death in the simulated horizon),168,1,censored at last simulated contact
S0031,ARM4,PFS,Progression-free survival (detected at assessment),64,0,progression detected at scheduled tumour assessment
S0031,ARM4,OS,Overall survival (death in the simulated horizon),148,1,censored at last simulated contact
S0032,ARM4,PFS,Progression-free survival (detected at assessment),64,0,progression detected at scheduled tumour assessment
S0032,ARM4,OS,Overall survival (death in the simulated horizon),148,1,censored at last simulated contact
S0033,ARM3,PFS,Progression-free survival (detected at assessment),38,1,censored at last tumour assessment
S0033,ARM3,OS,Overall survival (death in the simulated horizon),490,0,death
S0034,ARM1,PFS,Progression-free survival (detected at assessment),64,1,censored at last tumour assessment
S0034,ARM1,OS,Overall survival (death in the simulated horizon),168,1,censored at last simulated contact
S0035,ARM1,PFS,Progression-free survival (detected at assessment),64,1,censored at last tumour assessment
S0035,ARM1,OS,Overall survival (death in the simulated horizon),168,1,censored at last simulated contact
S0036,ARM3,PFS,Progression-free survival (detected at assessment),64,1,censored at last tumour assessment
S0036,ARM3,OS,Overall survival (death in the simulated horizon),168,1,censored at last simulated contact
S0037,ARM3,PFS,Progression-free survival (detected at assessment),64,1,censored at last tumour assessment
S0037,ARM3,OS,Overall survival (death in the simulated horizon),168,1,censored at last simulated contact
S0038,ARM3,PFS,Progression-free survival (detected at assessment),64,0,progression detected at scheduled tumour assessment
S0038,ARM3,OS,Overall survival (death in the simulated horizon),148,1,censored at last simulated contact
S0039,ARM1,PFS,Progression-free survival (detected at assessment),64,1,censored at last tumour assessment
S0039,ARM1,OS,Overall survival (death in the simulated horizon),168,1,censored at last simulated contact
S0040,ARM1,PFS,Progression-free survival (detected at assessment),64,0,progression detected at scheduled tumour assessment
S0040,ARM1,OS,Overall survival (death in the simulated horizon),148,1,censored at last simulated contact
S0041,ARM3,PFS,Progression-free survival (detected at assessment),64,0,progression detected at scheduled tumour assessment
S0041,ARM3,OS,Overall survival (death in the simulated horizon),148,1,censored at last simulated contact
S0042,ARM4,PFS,Progression-free survival (detected at assessment),64,1,censored at last tumour assessment
S0042,ARM4,OS,Overall survival (death in the simulated horizon),167,1,censored at last simulated contact
S0043,ARM3,PFS,Progression-free survival (detected at assessment),64,0,progression detected at scheduled tumour assessment
S0043,ARM3,OS,Overall survival (death in the simulated horizon),148,1,censored at last simulated contact
S0044,ARM2,PFS,Progression-free survival (detected at assessment),64,1,censored at last tumour assessment
S0044,ARM2,OS,Overall survival (death in the simulated horizon),168,1,censored at last simulated contact
S0045,ARM4,PFS,Progression-free survival (detected at assessment),64,1,censored at last tumour assessment
S0045,ARM4,OS,Overall survival (death in the simulated horizon),168,1,censored at last simulated contact
S0046,ARM2,PFS,Progression-free survival (detected at assessment),64,0,progression detected at scheduled tumour assessment
S0046,ARM2,OS,Overall survival (death in the simulated horizon),148,1,censored at last simulated contact
S0047,ARM2,PFS,Progression-free survival (detected at assessment),64,1,censored at last tumour assessment
S0047,ARM2,OS,Overall survival (death in the simulated horizon),168,1,censored at last simulated contact
S0048,ARM2,PFS,Progression-free survival (detected at assessment),64,0,progression detected at scheduled tumour assessment
S0048,ARM2,OS,Overall survival (death in the simulated horizon),148,1,censored at last simulated contact
S0049,ARM4,PFS,Progression-free survival (detected at assessment),64,1,censored at last tumour assessment
S0049,ARM4,OS,Overall survival (death in the simulated horizon),224,0,death
S0050,ARM4,PFS,Progression-free survival (detected at assessment),64,1,censored at last tumour assessment
S0050,ARM4,OS,Overall survival (death in the simulated horizon),168,1,censored at last simulated contact
S0051,ARM1,PFS,Progression-free survival (detected at assessment),64,1,censored at last tumour assessment
S0051,ARM1,OS,Overall survival (death in the simulated horizon),167,0,death
S0052,ARM4,PFS,Progression-free survival (detected at assessment),59,1,censored at last tumour assessment
S0052,ARM4,OS,Overall survival (death in the simulated horizon),143,1,censored at last simulated contact
S0053,ARM2,PFS,Progression-free survival (detected at assessment),25,1,censored at last tumour assessment
S0053,ARM2,OS,Overall survival (death in the simulated horizon),109,1,censored at last simulated contact
S0054,ARM3,PFS,Progression-free survival (detected at assessment),64,0,progression detected at scheduled tumour assessment
S0054,ARM3,OS,Overall survival (death in the simulated horizon),592,0,death
S0055,ARM1,PFS,Progression-free survival (detected at assessment),64,1,censored at last tumour assessment
S0055,ARM1,OS,Overall survival (death in the simulated horizon),168,1,censored at last simulated contact
S0056,ARM2,PFS,Progression-free survival (detected at assessment),64,1,censored at last tumour assessment
S0056,ARM2,OS,Overall survival (death in the simulated horizon),168,1,censored at last simulated contact
S0057,ARM3,PFS,Progression-free survival (detected at assessment),64,0,progression detected at scheduled tumour assessment
S0057,ARM3,OS,Overall survival (death in the simulated horizon),148,1,censored at last simulated contact
S0058,ARM2,PFS,Progression-free survival (detected at assessment),64,1,censored at last tumour assessment
S0058,ARM2,OS,Overall survival (death in the simulated horizon),168,1,censored at last simulated contact
S0059,ARM2,PFS,Progression-free survival (detected at assessment),64,1,censored at last tumour assessment
S0059,ARM2,OS,Overall survival (death in the simulated horizon),168,1,censored at last simulated contact
S0060,ARM2,PFS,Progression-free survival (detected at assessment),64,1,censored at last tumour assessment
S0060,ARM2,OS,Overall survival (death in the simulated horizon),323,0,death
S0061,ARM4,PFS,Progression-free survival (detected at assessment),64,1,censored at last tumour assessment
S0061,ARM4,OS,Overall survival (death in the simulated horizon),168,1,censored at last simulated contact
S0062,ARM1,PFS,Progression-free survival (detected at assessment),64,1,censored at last tumour assessment
S0062,ARM1,OS,Overall survival (death in the simulated horizon),168,1,censored at last simulated contact
S0063,ARM2,PFS,Progression-free survival (detected at assessment),64,1,censored at last tumour assessment
S0063,ARM2,OS,Overall survival (death in the simulated horizon),168,1,censored at last simulated contact
S0064,ARM3,PFS,Progression-free survival (detected at assessment),64,0,progression detected at scheduled tumour assessment
S0064,ARM3,OS,Overall survival (death in the simulated horizon),148,1,censored at last simulated contact
S0065,ARM2,PFS,Progression-free survival (detected at assessment),64,1,censored at last tumour assessment
S0065,ARM2,OS,Overall survival (death in the simulated horizon),168,1,censored at last simulated contact
S0066,ARM1,PFS,Progression-free survival (detected at assessment),64,1,censored at last tumour assessment
S0066,ARM1,OS,Overall survival (death in the simulated horizon),168,1,censored at last simulated contact
S0067,ARM2,PFS,Progression-free survival (detected at assessment),64,0,progression detected at scheduled tumour assessment
S0067,ARM2,OS,Overall survival (death in the simulated horizon),434,0,death
S0068,ARM1,PFS,Progression-free survival (detected at assessment),64,1,censored at last tumour assessment
S0068,ARM1,OS,Overall survival (death in the simulated horizon),168,1,censored at last simulated contact
S0069,ARM1,PFS,Progression-free survival (detected at assessment),64,0,progression detected at scheduled tumour assessment
S0069,ARM1,OS,Overall survival (death in the simulated horizon),148,1,censored at last simulated contact
S0070,ARM1,PFS,Progression-free survival (detected at assessment),64,0,progression detected at scheduled tumour assessment
S0070,ARM1,OS,Overall survival (death in the simulated horizon),148,1,censored at last simulated contact
S0071,ARM3,PFS,Progression-free survival (detected at assessment),64,0,progression detected at scheduled tumour assessment
S0071,ARM3,OS,Overall survival (death in the simulated horizon),148,1,censored at last simulated contact
S0072,ARM1,PFS,Progression-free survival (detected at assessment),64,0,progression detected at scheduled tumour assessment
S0072,ARM1,OS,Overall survival (death in the simulated horizon),148,1,censored at last simulated contact
S0073,ARM3,PFS,Progression-free survival (detected at assessment),64,1,censored at last tumour assessment
S0073,ARM3,OS,Overall survival (death in the simulated horizon),168,1,censored at last simulated contact
S0074,ARM4,PFS,Progression-free survival (detected at assessment),64,1,censored at last tumour assessment
S0074,ARM4,OS,Overall survival (death in the simulated horizon),168,1,censored at last simulated contact
S0075,ARM3,PFS,Progression-free survival (detected at assessment),64,0,progression detected at scheduled tumour assessment
S0075,ARM3,OS,Overall survival (death in the simulated horizon),148,1,censored at last simulated contact
S0076,ARM4,PFS,Progression-free survival (detected at assessment),64,0,progression detected at scheduled tumour assessment
S0076,ARM4,OS,Overall survival (death in the simulated horizon),315,0,death
S0077,ARM2,PFS,Progression-free survival (detected at assessment),64,1,censored at last tumour assessment
S0077,ARM2,OS,Overall survival (death in the simulated horizon),168,1,censored at last simulated contact
S0078,ARM4,PFS,Progression-free survival (detected at assessment),64,0,progression detected at scheduled tumour assessment
S0078,ARM4,OS,Overall survival (death in the simulated horizon),148,1,censored at last simulated contact
S0079,ARM2,PFS,Progression-free survival (detected at assessment),64,0,progression detected at scheduled tumour assessment
S0079,ARM2,OS,Overall survival (death in the simulated horizon),148,1,censored at last simulated contact
S0080,ARM2,PFS,Progression-free survival (detected at assessment),7,1,censored at last tumour assessment
S0080,ARM2,OS,Overall survival (death in the simulated horizon),91,1,censored at last simulated contact
S0081,ARM4,PFS,Progression-free survival (detected at assessment),64,0,progression detected at scheduled tumour assessment
S0081,ARM4,OS,Overall survival (death in the simulated horizon),148,1,censored at last simulated contact
S0082,ARM1,PFS,Progression-free survival (detected at assessment),64,1,censored at last tumour assessment
S0082,ARM1,OS,Overall survival (death in the simulated horizon),168,1,censored at last simulated contact
S0083,ARM4,PFS,Progression-free survival (detected at assessment),64,0,progression detected at scheduled tumour assessment
S0083,ARM4,OS,Overall survival (death in the simulated horizon),148,1,censored at last simulated contact
S0084,ARM2,PFS,Progression-free survival (detected at assessment),64,1,censored at last tumour assessment
S0084,ARM2,OS,Overall survival (death in the simulated horizon),168,1,censored at last simulated contact
S0085,ARM1,PFS,Progression-free survival (detected at assessment),64,1,censored at last tumour assessment
S0085,ARM1,OS,Overall survival (death in the simulated horizon),168,1,censored at last simulated contact
S0086,ARM1,PFS,Progression-free survival (detected at assessment),64,1,censored at last tumour assessment
S0086,ARM1,OS,Overall survival (death in the simulated horizon),168,1,censored at last simulated contact
S0087,ARM3,PFS,Progression-free survival (detected at assessment),64,0,progression detected at scheduled tumour assessment
S0087,ARM3,OS,Overall survival (death in the simulated horizon),148,1,censored at last simulated contact
S0088,ARM2,PFS,Progression-free survival (detected at assessment),64,0,progression detected at scheduled tumour assessment
S0088,ARM2,OS,Overall survival (death in the simulated horizon),148,1,censored at last simulated contact
S0089,ARM4,PFS,Progression-free survival (detected at assessment),64,1,censored at last tumour assessment
S0089,ARM4,OS,Overall survival (death in the simulated horizon),168,1,censored at last simulated contact
S0090,ARM3,PFS,Progression-free survival (detected at assessment),64,1,censored at last tumour assessment
S0090,ARM3,OS,Overall survival (death in the simulated horizon),168,1,censored at last simulated contact
S0091,ARM2,PFS,Progression-free survival (detected at assessment),12,1,censored at last tumour assessment
S0091,ARM2,OS,Overall survival (death in the simulated horizon),96,1,censored at last simulated contact
S0092,ARM3,PFS,Progression-free survival (detected at assessment),64,0,progression detected at scheduled tumour assessment
S0092,ARM3,OS,Overall survival (death in the simulated horizon),148,1,censored at last simulated contact
S0093,ARM4,PFS,Progression-free survival (detected at assessment),64,1,censored at last tumour assessment
S0093,ARM4,OS,Overall survival (death in the simulated horizon),168,1,censored at last simulated contact
S0094,ARM1,PFS,Progression-free survival (detected at assessment),64,1,censored at last tumour assessment
S0094,ARM1,OS,Overall survival (death in the simulated horizon),168,1,censored at last simulated contact
S0095,ARM4,PFS,Progression-free survival (detected at assessment),64,0,progression detected at scheduled tumour assessment
S0095,ARM4,OS,Overall survival (death in the simulated horizon),148,1,censored at last simulated contact
S0096,ARM2,PFS,Progression-free survival (detected at assessment),64,0,progression detected at scheduled tumour assessment
S0096,ARM2,OS,Overall survival (death in the simulated horizon),148,1,censored at last simulated contact
S0097,ARM2,PFS,Progression-free survival (detected at assessment),64,1,censored at last tumour assessment
S0097,ARM2,OS,Overall survival (death in the simulated horizon),168,1,censored at last simulated contact
S0098,ARM3,PFS,Progression-free survival (detected at assessment),64,0,progression detected at scheduled tumour assessment
S0098,ARM3,OS,Overall survival (death in the simulated horizon),248,0,death
S0099,ARM2,PFS,Progression-free survival (detected at assessment),64,1,censored at last tumour assessment
S0099,ARM2,OS,Overall survival (death in the simulated horizon),168,1,censored at last simulated contact
S0100,ARM1,PFS,Progression-free survival (detected at assessment),64,1,censored at last tumour assessment
S0100,ARM1,OS,Overall survival (death in the simulated horizon),168,1,censored at last simulated contact
S0101,ARM2,PFS,Progression-free survival (detected at assessment),64,0,progression detected at scheduled tumour assessment
S0101,ARM2,OS,Overall survival (death in the simulated horizon),273,0,death
S0102,ARM4,PFS,Progression-free survival (detected at assessment),64,1,censored at last tumour assessment
S0102,ARM4,OS,Overall survival (death in the simulated horizon),168,1,censored at last simulated contact
S0103,ARM4,PFS,Progression-free survival (detected at assessment),64,1,censored at last tumour assessment
S0103,ARM4,OS,Overall survival (death in the simulated horizon),168,1,censored at last simulated contact
S0104,ARM4,PFS,Progression-free survival (detected at assessment),64,1,censored at last tumour assessment
S0104,ARM4,OS,Overall survival (death in the simulated horizon),168,1,censored at last simulated contact
S0105,ARM1,PFS,Progression-free survival (detected at assessment),64,1,censored at last tumour assessment
S0105,ARM1,OS,Overall survival (death in the simulated horizon),168,1,censored at last simulated contact
S0106,ARM1,PFS,Progression-free survival (detected at assessment),64,0,progression detected at scheduled tumour assessment
S0106,ARM1,OS,Overall survival (death in the simulated horizon),148,1,censored at last simulated contact
S0107,ARM3,PFS,Progression-free survival (detected at assessment),64,0,progression detected at scheduled tumour assessment
S0107,ARM3,OS,Overall survival (death in the simulated horizon),148,1,censored at last simulated contact
S0108,ARM2,PFS,Progression-free survival (detected at assessment),64,1,censored at last tumour assessment
S0108,ARM2,OS,Overall survival (death in the simulated horizon),168,1,censored at last simulated contact
S0109,ARM1,PFS,Progression-free survival (detected at assessment),64,1,censored at last tumour assessment
S0109,ARM1,OS,Overall survival (death in the simulated horizon),168,1,censored at last simulated contact
S0110,ARM4,PFS,Progression-free survival (detected at assessment),64,0,progression detected at scheduled tumour assessment
S0110,ARM4,OS,Overall survival (death in the simulated horizon),148,1,censored at last simulated contact
S0111,ARM3,PFS,Progression-free survival (detected at assessment),64,1,censored at last tumour assessment
S0111,ARM3,OS,Overall survival (death in the simulated horizon),168,1,censored at last simulated contact
S0112,ARM1,PFS,Progression-free survival (detected at assessment),64,1,censored at last tumour assessment
S0112,ARM1,OS,Overall survival (death in the simulated horizon),168,1,censored at last simulated contact
S0113,ARM3,PFS,Progression-free survival (detected at assessment),64,0,progression detected at scheduled tumour assessment
S0113,ARM3,OS,Overall survival (death in the simulated horizon),148,1,censored at last simulated contact
S0114,ARM1,PFS,Progression-free survival (detected at assessment),64,1,censored at last tumour assessment
S0114,ARM1,OS,Overall survival (death in the simulated horizon),168,1,censored at last simulated contact
S0115,ARM2,PFS,Progression-free survival (detected at assessment),64,0,progression detected at scheduled tumour assessment
S0115,ARM2,OS,Overall survival (death in the simulated horizon),148,1,censored at last simulated contact
S0116,ARM4,PFS,Progression-free survival (detected at assessment),64,1,censored at last tumour assessment
S0116,ARM4,OS,Overall survival (death in the simulated horizon),168,1,censored at last simulated contact
S0117,ARM4,PFS,Progression-free survival (detected at assessment),47,1,censored at last tumour assessment
S0117,ARM4,OS,Overall survival (death in the simulated horizon),47,0,death
S0118,ARM4,PFS,Progression-free survival (detected at assessment),64,1,censored at last tumour assessment
S0118,ARM4,OS,Overall survival (death in the simulated horizon),153,1,censored at last simulated contact
S0119,ARM1,PFS,Progression-free survival (detected at assessment),64,1,censored at last tumour assessment
S0119,ARM1,OS,Overall survival (death in the simulated horizon),168,1,censored at last simulated contact
S0120,ARM3,PFS,Progression-free survival (detected at assessment),64,1,censored at last tumour assessment
S0120,ARM3,OS,Overall survival (death in the simulated horizon),147,1,censored at last simulated contact
S0121,ARM1,PFS,Progression-free survival (detected at assessment),64,0,progression detected at scheduled tumour assessment
S0121,ARM1,OS,Overall survival (death in the simulated horizon),148,1,censored at last simulated contact
S0122,ARM3,PFS,Progression-free survival (detected at assessment),64,1,censored at last tumour assessment
S0122,ARM3,OS,Overall survival (death in the simulated horizon),168,1,censored at last simulated contact
S0123,ARM2,PFS,Progression-free survival (detected at assessment),64,0,progression detected at scheduled tumour assessment
S0123,ARM2,OS,Overall survival (death in the simulated horizon),148,1,censored at last simulated contact
S0124,ARM1,PFS,Progression-free survival (detected at assessment),64,1,censored at last tumour assessment
S0124,ARM1,OS,Overall survival (death in the simulated horizon),168,1,censored at last simulated contact
S0125,ARM1,PFS,Progression-free survival (detected at assessment),64,1,censored at last tumour assessment
S0125,ARM1,OS,Overall survival (death in the simulated horizon),168,1,censored at last simulated contact
S0126,ARM1,PFS,Progression-free survival (detected at assessment),64,0,progression detected at scheduled tumour assessment
S0126,ARM1,OS,Overall survival (death in the simulated horizon),148,1,censored at last simulated contact
S0127,ARM3,PFS,Progression-free survival (detected at assessment),64,0,progression detected at scheduled tumour assessment
S0127,ARM3,OS,Overall survival (death in the simulated horizon),148,1,censored at last simulated contact
S0128,ARM4,PFS,Progression-free survival (detected at assessment),64,1,censored at last tumour assessment
S0128,ARM4,OS,Overall survival (death in the simulated horizon),168,1,censored at last simulated contact
S0129,ARM2,PFS,Progression-free survival (detected at assessment),64,1,censored at last tumour assessment
S0129,ARM2,OS,Overall survival (death in the simulated horizon),168,1,censored at last simulated contact
S0130,ARM4,PFS,Progression-free survival (detected at assessment),64,1,censored at last tumour assessment
S0130,ARM4,OS,Overall survival (death in the simulated horizon),168,1,censored at last simulated contact
S0131,ARM4,PFS,Progression-free survival (detected at assessment),64,1,censored at last tumour assessment
S0131,ARM4,OS,Overall survival (death in the simulated horizon),168,1,censored at last simulated contact
S0132,ARM2,PFS,Progression-free survival (detected at assessment),64,1,censored at last tumour assessment
S0132,ARM2,OS,Overall survival (death in the simulated horizon),168,1,censored at last simulated contact
S0133,ARM4,PFS,Progression-free survival (detected at assessment),64,1,censored at last tumour assessment
S0133,ARM4,OS,Overall survival (death in the simulated horizon),168,1,censored at last simulated contact
S0134,ARM3,PFS,Progression-free survival (detected at assessment),64,1,censored at last tumour assessment
S0134,ARM3,OS,Overall survival (death in the simulated horizon),206,0,death
S0135,ARM3,PFS,Progression-free survival (detected at assessment),64,1,censored at last tumour assessment
S0135,ARM3,OS,Overall survival (death in the simulated horizon),168,1,censored at last simulated contact
S0136,ARM3,PFS,Progression-free survival (detected at assessment),64,1,censored at last tumour assessment
S0136,ARM3,OS,Overall survival (death in the simulated horizon),168,1,censored at last simulated contact
S0137,ARM3,PFS,Progression-free survival (detected at assessment),55,1,censored at last tumour assessment
S0137,ARM3,OS,Overall survival (death in the simulated horizon),139,1,censored at last simulated contact
S0138,ARM3,PFS,Progression-free survival (detected at assessment),64,1,censored at last tumour assessment
S0138,ARM3,OS,Overall survival (death in the simulated horizon),168,1,censored at last simulated contact
S0139,ARM2,PFS,Progression-free survival (detected at assessment),64,0,progression detected at scheduled tumour assessment
S0139,ARM2,OS,Overall survival (death in the simulated horizon),148,1,censored at last simulated contact
S0140,ARM1,PFS,Progression-free survival (detected at assessment),64,1,censored at last tumour assessment
S0140,ARM1,OS,Overall survival (death in the simulated horizon),168,1,censored at last simulated contact
S0141,ARM1,PFS,Progression-free survival (detected at assessment),64,0,progression detected at scheduled tumour assessment
S0141,ARM1,OS,Overall survival (death in the simulated horizon),148,1,censored at last simulated contact
S0142,ARM2,PFS,Progression-free survival (detected at assessment),64,1,censored at last tumour assessment
S0142,ARM2,OS,Overall survival (death in the simulated horizon),168,1,censored at last simulated contact
S0143,ARM1,PFS,Progression-free survival (detected at assessment),12,1,censored at last tumour assessment
S0143,ARM1,OS,Overall survival (death in the simulated horizon),96,1,censored at last simulated contact
S0144,ARM2,PFS,Progression-free survival (detected at assessment),64,0,progression detected at scheduled tumour assessment
S0144,ARM2,OS,Overall survival (death in the simulated horizon),148,1,censored at last simulated contact
S0145,ARM1,PFS,Progression-free survival (detected at assessment),64,1,censored at last tumour assessment
S0145,ARM1,OS,Overall survival (death in the simulated horizon),168,1,censored at last simulated contact
S0146,ARM1,PFS,Progression-free survival (detected at assessment),64,0,progression detected at scheduled tumour assessment
S0146,ARM1,OS,Overall survival (death in the simulated horizon),148,1,censored at last simulated contact
S0147,ARM4,PFS,Progression-free survival (detected at assessment),64,0,progression detected at scheduled tumour assessment
S0147,ARM4,OS,Overall survival (death in the simulated horizon),359,0,death
S0148,ARM1,PFS,Progression-free survival (detected at assessment),64,1,censored at last tumour assessment
S0148,ARM1,OS,Overall survival (death in the simulated horizon),168,1,censored at last simulated contact
S0149,ARM2,PFS,Progression-free survival (detected at assessment),64,1,censored at last tumour assessment
S0149,ARM2,OS,Overall survival (death in the simulated horizon),168,1,censored at last simulated contact
S0150,ARM3,PFS,Progression-free survival (detected at assessment),64,1,censored at last tumour assessment
S0150,ARM3,OS,Overall survival (death in the simulated horizon),168,1,censored at last simulated contact
S0151,ARM1,PFS,Progression-free survival (detected at assessment),64,0,progression detected at scheduled tumour assessment
S0151,ARM1,OS,Overall survival (death in the simulated horizon),148,1,censored at last simulated contact
S0152,ARM3,PFS,Progression-free survival (detected at assessment),64,0,progression detected at scheduled tumour assessment
S0152,ARM3,OS,Overall survival (death in the simulated horizon),148,1,censored at last simulated contact
S0153,ARM1,PFS,Progression-free survival (detected at assessment),64,1,censored at last tumour assessment
S0153,ARM1,OS,Overall survival (death in the simulated horizon),168,1,censored at last simulated contact
S0154,ARM3,PFS,Progression-free survival (detected at assessment),26,1,censored at last tumour assessment
S0154,ARM3,OS,Overall survival (death in the simulated horizon),110,1,censored at last simulated contact
S0155,ARM4,PFS,Progression-free survival (detected at assessment),64,0,progression detected at scheduled tumour assessment
S0155,ARM4,OS,Overall survival (death in the simulated horizon),148,1,censored at last simulated contact
S0156,ARM1,PFS,Progression-free survival (detected at assessment),64,0,progression detected at scheduled tumour assessment
S0156,ARM1,OS,Overall survival (death in the simulated horizon),148,1,censored at last simulated contact
S0157,ARM1,PFS,Progression-free survival (detected at assessment),64,0,progression detected at scheduled tumour assessment
S0157,ARM1,OS,Overall survival (death in the simulated horizon),148,1,censored at last simulated contact
S0158,ARM4,PFS,Progression-free survival (detected at assessment),64,1,censored at last tumour assessment
S0158,ARM4,OS,Overall survival (death in the simulated horizon),168,1,censored at last simulated contact
S0159,ARM4,PFS,Progression-free survival (detected at assessment),64,1,censored at last tumour assessment
S0159,ARM4,OS,Overall survival (death in the simulated horizon),168,1,censored at last simulated contact
S0160,ARM2,PFS,Progression-free survival (detected at assessment),64,1,censored at last tumour assessment
S0160,ARM2,OS,Overall survival (death in the simulated horizon),168,1,censored at last simulated contact
S0161,ARM4,PFS,Progression-free survival (detected at assessment),64,0,progression detected at scheduled tumour assessment
S0161,ARM4,OS,Overall survival (death in the simulated horizon),148,1,censored at last simulated contact
S0162,ARM4,PFS,Progression-free survival (detected at assessment),64,0,progression detected at scheduled tumour assessment
S0162,ARM4,OS,Overall survival (death in the simulated horizon),148,1,censored at last simulated contact
S0163,ARM3,PFS,Progression-free survival (detected at assessment),64,1,censored at last tumour assessment
S0163,ARM3,OS,Overall survival (death in the simulated horizon),168,1,censored at last simulated contact
S0164,ARM2,PFS,Progression-free survival (detected at assessment),64,1,censored at last tumour assessment
S0164,ARM2,OS,Overall survival (death in the simulated horizon),168,1,censored at last simulated contact
S0165,ARM3,PFS,Progression-free survival (detected at assessment),64,0,progression detected at scheduled tumour assessment
S0165,ARM3,OS,Overall survival (death in the simulated horizon),148,1,censored at last simulated contact
S0166,ARM2,PFS,Progression-free survival (detected at assessment),64,1,censored at last tumour assessment
S0166,ARM2,OS,Overall survival (death in the simulated horizon),168,1,censored at last simulated contact
S0167,ARM4,PFS,Progression-free survival (detected at assessment),64,1,censored at last tumour assessment
S0167,ARM4,OS,Overall survival (death in the simulated horizon),168,1,censored at last simulated contact
S0168,ARM2,PFS,Progression-free survival (detected at assessment),64,0,progression detected at scheduled tumour assessment
S0168,ARM2,OS,Overall survival (death in the simulated horizon),148,1,censored at last simulated contact
S0169,ARM4,PFS,Progression-free survival (detected at assessment),64,1,censored at last tumour assessment
S0169,ARM4,OS,Overall survival (death in the simulated horizon),168,1,censored at last simulated contact
S0170,ARM3,PFS,Progression-free survival (detected at assessment),64,0,progression detected at scheduled tumour assessment
S0170,ARM3,OS,Overall survival (death in the simulated horizon),148,1,censored at last simulated contact
S0171,ARM3,PFS,Progression-free survival (detected at assessment),64,1,censored at last tumour assessment
S0171,ARM3,OS,Overall survival (death in the simulated horizon),168,1,censored at last simulated contact
S0172,ARM1,PFS,Progression-free survival (detected at assessment),64,1,censored at last tumour assessment
S0172,ARM1,OS,Overall survival (death in the simulated horizon),168,1,censored at last simulated contact
S0173,ARM4,PFS,Progression-free survival (detected at assessment),64,1,censored at last tumour assessment
S0173,ARM4,OS,Overall survival (death in the simulated horizon),168,1,censored at last simulated contact
S0174,ARM3,PFS,Progression-free survival (detected at assessment),64,1,censored at last tumour assessment
S0174,ARM3,OS,Overall survival (death in the simulated horizon),156,1,censored at last simulated contact
S0175,ARM1,PFS,Progression-free survival (detected at assessment),64,1,censored at last tumour assessment
S0175,ARM1,OS,Overall survival (death in the simulated horizon),168,1,censored at last simulated contact
S0176,ARM1,PFS,Progression-free survival (detected at assessment),64,1,censored at last tumour assessment
S0176,ARM1,OS,Overall survival (death in the simulated horizon),168,1,censored at last simulated contact
S0177,ARM3,PFS,Progression-free survival (detected at assessment),64,1,censored at last tumour assessment
S0177,ARM3,OS,Overall survival (death in the simulated horizon),168,1,censored at last simulated contact
S0178,ARM1,PFS,Progression-free survival (detected at assessment),64,1,censored at last tumour assessment
S0178,ARM1,OS,Overall survival (death in the simulated horizon),168,1,censored at last simulated contact
S0179,ARM3,PFS,Progression-free survival (detected at assessment),64,1,censored at last tumour assessment
S0179,ARM3,OS,Overall survival (death in the simulated horizon),168,1,censored at last simulated contact
S0180,ARM4,PFS,Progression-free survival (detected at assessment),64,1,censored at last tumour assessment
S0180,ARM4,OS,Overall survival (death in the simulated horizon),168,1,censored at last simulated contact
S0181,ARM3,PFS,Progression-free survival (detected at assessment),64,1,censored at last tumour assessment
S0181,ARM3,OS,Overall survival (death in the simulated horizon),168,1,censored at last simulated contact
S0182,ARM3,PFS,Progression-free survival (detected at assessment),64,1,censored at last tumour assessment
S0182,ARM3,OS,Overall survival (death in the simulated horizon),168,1,censored at last simulated contact
S0183,ARM1,PFS,Progression-free survival (detected at assessment),64,0,progression detected at scheduled tumour assessment
S0183,ARM1,OS,Overall survival (death in the simulated horizon),148,1,censored at last simulated contact
S0184,ARM1,PFS,Progression-free survival (detected at assessment),64,0,progression detected at scheduled tumour assessment
S0184,ARM1,OS,Overall survival (death in the simulated horizon),148,1,censored at last simulated contact
S0185,ARM4,PFS,Progression-free survival (detected at assessment),47,1,censored at last tumour assessment
S0185,ARM4,OS,Overall survival (death in the simulated horizon),131,1,censored at last simulated contact
S0186,ARM2,PFS,Progression-free survival (detected at assessment),64,1,censored at last tumour assessment
S0186,ARM2,OS,Overall survival (death in the simulated horizon),168,1,censored at last simulated contact
S0187,ARM1,PFS,Progression-free survival (detected at assessment),64,1,censored at last tumour assessment
S0187,ARM1,OS,Overall survival (death in the simulated horizon),168,1,censored at last simulated contact
S0188,ARM4,PFS,Progression-free survival (detected at assessment),3,1,censored at last tumour assessment
S0188,ARM4,OS,Overall survival (death in the simulated horizon),87,1,censored at last simulated contact
S0189,ARM1,PFS,Progression-free survival (detected at assessment),26,1,censored at last tumour assessment
S0189,ARM1,OS,Overall survival (death in the simulated horizon),110,1,censored at last simulated contact
S0190,ARM3,PFS,Progression-free survival (detected at assessment),64,1,censored at last tumour assessment
S0190,ARM3,OS,Overall survival (death in the simulated horizon),168,1,censored at last simulated contact
S0191,ARM3,PFS,Progression-free survival (detected at assessment),64,1,censored at last tumour assessment
S0191,ARM3,OS,Overall survival (death in the simulated horizon),168,1,censored at last simulated contact
S0192,ARM3,PFS,Progression-free survival (detected at assessment),64,0,progression detected at scheduled tumour assessment
S0192,ARM3,OS,Overall survival (death in the simulated horizon),148,1,censored at last simulated contact
S0193,ARM1,PFS,Progression-free survival (detected at assessment),64,0,progression detected at scheduled tumour assessment
S0193,ARM1,OS,Overall survival (death in the simulated horizon),148,1,censored at last simulated contact
S0194,ARM1,PFS,Progression-free survival (detected at assessment),64,1,censored at last tumour assessment
S0194,ARM1,OS,Overall survival (death in the simulated horizon),168,1,censored at last simulated contact
S0195,ARM4,PFS,Progression-free survival (detected at assessment),64,0,progression detected at scheduled tumour assessment
S0195,ARM4,OS,Overall survival (death in the simulated horizon),148,1,censored at last simulated contact
S0196,ARM1,PFS,Progression-free survival (detected at assessment),64,1,censored at last tumour assessment
S0196,ARM1,OS,Overall survival (death in the simulated horizon),168,1,censored at last simulated contact
S0197,ARM2,PFS,Progression-free survival (detected at assessment),64,1,censored at last tumour assessment
S0197,ARM2,OS,Overall survival (death in the simulated horizon),168,1,censored at last simulated contact
S0198,ARM3,PFS,Progression-free survival (detected at assessment),64,0,progression detected at scheduled tumour assessment
S0198,ARM3,OS,Overall survival (death in the simulated horizon),148,1,censored at last simulated contact
S0199,ARM2,PFS,Progression-free survival (detected at assessment),64,0,progression detected at scheduled tumour assessment
S0199,ARM2,OS,Overall survival (death in the simulated horizon),148,1,censored at last simulated contact
S0200,ARM2,PFS,Progression-free survival (detected at assessment),54,1,censored at last tumour assessment
S0200,ARM2,OS,Overall survival (death in the simulated horizon),138,1,censored at last simulated contact
S0201,ARM3,PFS,Progression-free survival (detected at assessment),64,0,progression detected at scheduled tumour assessment
S0201,ARM3,OS,Overall survival (death in the simulated horizon),148,1,censored at last simulated contact
S0202,ARM3,PFS,Progression-free survival (detected at assessment),64,1,censored at last tumour assessment
S0202,ARM3,OS,Overall survival (death in the simulated horizon),168,1,censored at last simulated contact
S0203,ARM3,PFS,Progression-free survival (detected at assessment),64,1,censored at last tumour assessment
S0203,ARM3,OS,Overall survival (death in the simulated horizon),168,1,censored at last simulated contact
S0204,ARM3,PFS,Progression-free survival (detected at assessment),64,1,censored at last tumour assessment
S0204,ARM3,OS,Overall survival (death in the simulated horizon),159,1,censored at last simulated contact
S0205,ARM3,PFS,Progression-free survival (detected at assessment),64,0,progression detected at scheduled tumour assessment
S0205,ARM3,OS,Overall survival (death in the simulated horizon),148,1,censored at last simulated contact
S0206,ARM2,PFS,Progression-free survival (detected at assessment),64,1,censored at last tumour assessment
S0206,ARM2,OS,Overall survival (death in the simulated horizon),168,1,censored at last simulated contact
S0207,ARM4,PFS,Progression-free survival (detected at assessment),64,0,progression detected at scheduled tumour assessment
S0207,ARM4,OS,Overall survival (death in the simulated horizon),148,1,censored at last simulated contact
S0208,ARM4,PFS,Progression-free survival (detected at assessment),64,1,censored at last tumour assessment
S0208,ARM4,OS,Overall survival (death in the simulated horizon),168,1,censored at last simulated contact
S0209,ARM3,PFS,Progression-free survival (detected at assessment),64,1,censored at last tumour assessment
S0209,ARM3,OS,Overall survival (death in the simulated horizon),168,1,censored at last simulated contact
S0210,ARM2,PFS,Progression-free survival (detected at assessment),64,1,censored at last tumour assessment
S0210,ARM2,OS,Overall survival (death in the simulated horizon),168,1,censored at last simulated contact
S0211,ARM2,PFS,Progression-free survival (detected at assessment),59,1,censored at last tumour assessment
S0211,ARM2,OS,Overall survival (death in the simulated horizon),143,1,censored at last simulated contact
S0212,ARM3,PFS,Progression-free survival (detected at assessment),64,1,censored at last tumour assessment
S0212,ARM3,OS,Overall survival (death in the simulated horizon),168,1,censored at last simulated contact
S0213,ARM4,PFS,Progression-free survival (detected at assessment),64,1,censored at last tumour assessment
S0213,ARM4,OS,Overall survival (death in the simulated horizon),168,1,censored at last simulated contact
S0214,ARM1,PFS,Progression-free survival (detected at assessment),64,1,censored at last tumour assessment
S0214,ARM1,OS,Overall survival (death in the simulated horizon),168,1,censored at last simulated contact
S0215,ARM4,PFS,Progression-free survival (detected at assessment),64,1,censored at last tumour assessment
S0215,ARM4,OS,Overall survival (death in the simulated horizon),168,1,censored at last simulated contact
S0216,ARM1,PFS,Progression-free survival (detected at assessment),64,0,progression detected at scheduled tumour assessment
S0216,ARM1,OS,Overall survival (death in the simulated horizon),353,0,death
S0217,ARM3,PFS,Progression-free survival (detected at assessment),64,1,censored at last tumour assessment
S0217,ARM3,OS,Overall survival (death in the simulated horizon),168,1,censored at last simulated contact
S0218,ARM2,PFS,Progression-free survival (detected at assessment),64,0,progression detected at scheduled tumour assessment
S0218,ARM2,OS,Overall survival (death in the simulated horizon),607,0,death
S0219,ARM1,PFS,Progression-free survival (detected at assessment),3,1,censored at last tumour assessment
S0219,ARM1,OS,Overall survival (death in the simulated horizon),87,1,censored at last simulated contact
S0220,ARM2,PFS,Progression-free survival (detected at assessment),64,1,censored at last tumour assessment
S0220,ARM2,OS,Overall survival (death in the simulated horizon),168,1,censored at last simulated contact
S0221,ARM4,PFS,Progression-free survival (detected at assessment),64,1,censored at last tumour assessment
S0221,ARM4,OS,Overall survival (death in the simulated horizon),168,1,censored at last simulated contact
S0222,ARM4,PFS,Progression-free survival (detected at assessment),64,1,censored at last tumour assessment
S0222,ARM4,OS,Overall survival (death in the simulated horizon),168,1,censored at last simulated contact
S0223,ARM2,PFS,Progression-free survival (detected at assessment),64,1,censored at last tumour assessment
S0223,ARM2,OS,Overall survival (death in the simulated horizon),168,1,censored at last simulated contact
S0224,ARM2,PFS,Progression-free survival (detected at assessment),64,0,progression detected at scheduled tumour assessment
S0224,ARM2,OS,Overall survival (death in the simulated horizon),148,1,censored at last simulated contact
S0225,ARM3,PFS,Progression-free survival (detected at assessment),64,1,censored at last tumour assessment
S0225,ARM3,OS,Overall survival (death in the simulated horizon),166,1,censored at last simulated contact
S0226,ARM2,PFS,Progression-free survival (detected at assessment),64,1,censored at last tumour assessment
S0226,ARM2,OS,Overall survival (death in the simulated horizon),168,1,censored at last simulated contact
S0227,ARM2,PFS,Progression-free survival (detected at assessment),64,1,censored at last tumour assessment
S0227,ARM2,OS,Overall survival (death in the simulated horizon),419,0,death
S0228,ARM1,PFS,Progression-free survival (detected at assessment),64,0,progression detected at scheduled tumour assessment
S0228,ARM1,OS,Overall survival (death in the simulated horizon),148,1,censored at last simulated contact
S0229,ARM4,PFS,Progression-free survival (detected at assessment),64,0,progression detected at scheduled tumour assessment
S0229,ARM4,OS,Overall survival (death in the simulated horizon),148,1,censored at last simulated contact
S0230,ARM3,PFS,Progression-free survival (detected at assessment),64,1,censored at last tumour assessment
S0230,ARM3,OS,Overall survival (death in the simulated horizon),168,1,censored at last simulated contact
S0231,ARM1,PFS,Progression-free survival (detected at assessment),64,1,censored at last tumour assessment
S0231,ARM1,OS,Overall survival (death in the simulated horizon),148,1,censored at last simulated contact
S0232,ARM1,PFS,Progression-free survival (detected at assessment),12,1,censored at last tumour assessment
S0232,ARM1,OS,Overall survival (death in the simulated horizon),96,1,censored at last simulated contact
S0233,ARM1,PFS,Progression-free survival (detected at assessment),64,0,progression detected at scheduled tumour assessment
S0233,ARM1,OS,Overall survival (death in the simulated horizon),148,1,censored at last simulated contact
S0234,ARM4,PFS,Progression-free survival (detected at assessment),64,0,progression detected at scheduled tumour assessment
S0234,ARM4,OS,Overall survival (death in the simulated horizon),148,1,censored at last simulated contact
S0235,ARM3,PFS,Progression-free survival (detected at assessment),64,1,censored at last tumour assessment
S0235,ARM3,OS,Overall survival (death in the simulated horizon),168,1,censored at last simulated contact
S0236,ARM3,PFS,Progression-free survival (detected at assessment),64,1,censored at last tumour assessment
S0236,ARM3,OS,Overall survival (death in the simulated horizon),168,1,censored at last simulated contact
S0237,ARM4,PFS,Progression-free survival (detected at assessment),64,1,censored at last tumour assessment
S0237,ARM4,OS,Overall survival (death in the simulated horizon),168,1,censored at last simulated contact
S0238,ARM1,PFS,Progression-free survival (detected at assessment),64,1,censored at last tumour assessment
S0238,ARM1,OS,Overall survival (death in the simulated horizon),168,1,censored at last simulated contact
S0239,ARM3,PFS,Progression-free survival (detected at assessment),64,0,progression detected at scheduled tumour assessment
S0239,ARM3,OS,Overall survival (death in the simulated horizon),148,1,censored at last simulated contact
S0240,ARM1,PFS,Progression-free survival (detected at assessment),64,1,censored at last tumour assessment
S0240,ARM1,OS,Overall survival (death in the simulated horizon),168,1,censored at last simulated contact
S0241,ARM3,PFS,Progression-free survival (detected at assessment),64,1,censored at last tumour assessment
S0241,ARM3,OS,Overall survival (death in the simulated horizon),168,1,censored at last simulated contact
S0242,ARM3,PFS,Progression-free survival (detected at assessment),64,1,censored at last tumour assessment
S0242,ARM3,OS,Overall survival (death in the simulated horizon),168,1,censored at last simulated contact
S0243,ARM1,PFS,Progression-free survival (detected at assessment),64,1,censored at last tumour assessment
S0243,ARM1,OS,Overall survival (death in the simulated horizon),500,0,death
S0244,ARM3,PFS,Progression-free survival (detected at assessment),64,1,censored at last tumour assessment
S0244,ARM3,OS,Overall survival (death in the simulated horizon),168,1,censored at last simulated contact
S0245,ARM4,PFS,Progression-free survival (detected at assessment),64,1,censored at last tumour assessment
S0245,ARM4,OS,Overall survival (death in the simulated horizon),168,1,censored at last simulated contact
S0246,ARM1,PFS,Progression-free survival (detected at assessment),64,1,censored at last tumour assessment
S0246,ARM1,OS,Overall survival (death in the simulated horizon),168,1,censored at last simulated contact
S0247,ARM4,PFS,Progression-free survival (detected at assessment),64,1,censored at last tumour assessment
S0247,ARM4,OS,Overall survival (death in the simulated horizon),168,1,censored at last simulated contact
S0248,ARM4,PFS,Progression-free survival (detected at assessment),64,1,censored at last tumour assessment
S0248,ARM4,OS,Overall survival (death in the simulated horizon),168,1,censored at last simulated contact
S0249,ARM3,PFS,Progression-free survival (detected at assessment),64,1,censored at last tumour assessment
S0249,ARM3,OS,Overall survival (death in the simulated horizon),168,1,censored at last simulated contact
S0250,ARM1,PFS,Progression-free survival (detected at assessment),64,1,censored at last tumour assessment
S0250,ARM1,OS,Overall survival (death in the simulated horizon),168,1,censored at last simulated contact
S0251,ARM3,PFS,Progression-free survival (detected at assessment),3,1,censored at last tumour assessment
S0251,ARM3,OS,Overall survival (death in the simulated horizon),87,1,censored at last simulated contact
S0252,ARM4,PFS,Progression-free survival (detected at assessment),64,0,progression detected at scheduled tumour assessment
S0252,ARM4,OS,Overall survival (death in the simulated horizon),604,0,death
S0253,ARM1,PFS,Progression-free survival (detected at assessment),64,1,censored at last tumour assessment
S0253,ARM1,OS,Overall survival (death in the simulated horizon),168,1,censored at last simulated contact
S0254,ARM3,PFS,Progression-free survival (detected at assessment),64,1,censored at last tumour assessment
S0254,ARM3,OS,Overall survival (death in the simulated horizon),168,1,censored at last simulated contact
S0255,ARM2,PFS,Progression-free survival (detected at assessment),64,1,censored at last tumour assessment
S0255,ARM2,OS,Overall survival (death in the simulated horizon),168,1,censored at last simulated contact
S0256,ARM2,PFS,Progression-free survival (detected at assessment),64,0,progression detected at scheduled tumour assessment
S0256,ARM2,OS,Overall survival (death in the simulated horizon),148,1,censored at last simulated contact
S0257,ARM1,PFS,Progression-free survival (detected at assessment),39,1,censored at last tumour assessment
S0257,ARM1,OS,Overall survival (death in the simulated horizon),123,1,censored at last simulated contact
S0258,ARM2,PFS,Progression-free survival (detected at assessment),64,1,censored at last tumour assessment
S0258,ARM2,OS,Overall survival (death in the simulated horizon),168,1,censored at last simulated contact
S0259,ARM4,PFS,Progression-free survival (detected at assessment),64,1,censored at last tumour assessment
S0259,ARM4,OS,Overall survival (death in the simulated horizon),168,1,censored at last simulated contact
S0260,ARM3,PFS,Progression-free survival (detected at assessment),64,0,progression detected at scheduled tumour assessment
S0260,ARM3,OS,Overall survival (death in the simulated horizon),148,1,censored at last simulated contact
S0261,ARM2,PFS,Progression-free survival (detected at assessment),64,1,censored at last tumour assessment
S0261,ARM2,OS,Overall survival (death in the simulated horizon),168,1,censored at last simulated contact
S0262,ARM3,PFS,Progression-free survival (detected at assessment),64,0,progression detected at scheduled tumour assessment
S0262,ARM3,OS,Overall survival (death in the simulated horizon),148,1,censored at last simulated contact
S0263,ARM2,PFS,Progression-free survival (detected at assessment),64,0,progression detected at scheduled tumour assessment
S0263,ARM2,OS,Overall survival (death in the simulated horizon),148,1,censored at last simulated contact
S0264,ARM4,PFS,Progression-free survival (detected at assessment),64,0,progression detected at scheduled tumour assessment
S0264,ARM4,OS,Overall survival (death in the simulated horizon),148,1,censored at last simulated contact
S0265,ARM1,PFS,Progression-free survival (detected at assessment),64,1,censored at last tumour assessment
S0265,ARM1,OS,Overall survival (death in the simulated horizon),168,1,censored at last simulated contact
S0266,ARM2,PFS,Progression-free survival (detected at assessment),64,1,censored at last tumour assessment
S0266,ARM2,OS,Overall survival (death in the simulated horizon),168,1,censored at last simulated contact
S0267,ARM1,PFS,Progression-free survival (detected at assessment),64,0,progression detected at scheduled tumour assessment
S0267,ARM1,OS,Overall survival (death in the simulated horizon),148,1,censored at last simulated contact
S0268,ARM2,PFS,Progression-free survival (detected at assessment),64,0,progression detected at scheduled tumour assessment
S0268,ARM2,OS,Overall survival (death in the simulated horizon),148,1,censored at last simulated contact
S0269,ARM2,PFS,Progression-free survival (detected at assessment),64,1,censored at last tumour assessment
S0269,ARM2,OS,Overall survival (death in the simulated horizon),168,1,censored at last simulated contact
S0270,ARM2,PFS,Progression-free survival (detected at assessment),64,1,censored at last tumour assessment
S0270,ARM2,OS,Overall survival (death in the simulated horizon),168,1,censored at last simulated contact
S0271,ARM1,PFS,Progression-free survival (detected at assessment),64,1,censored at last tumour assessment
S0271,ARM1,OS,Overall survival (death in the simulated horizon),684,0,death
S0272,ARM3,PFS,Progression-free survival (detected at assessment),64,1,censored at last tumour assessment
S0272,ARM3,OS,Overall survival (death in the simulated horizon),168,1,censored at last simulated contact
S0273,ARM1,PFS,Progression-free survival (detected at assessment),64,0,progression detected at scheduled tumour assessment
S0273,ARM1,OS,Overall survival (death in the simulated horizon),148,1,censored at last simulated contact
S0274,ARM2,PFS,Progression-free survival (detected at assessment),64,1,censored at last tumour assessment
S0274,ARM2,OS,Overall survival (death in the simulated horizon),168,1,censored at last simulated contact
S0275,ARM3,PFS,Progression-free survival (detected at assessment),64,0,progression detected at scheduled tumour assessment
S0275,ARM3,OS,Overall survival (death in the simulated horizon),148,1,censored at last simulated contact
S0276,ARM3,PFS,Progression-free survival (detected at assessment),64,1,censored at last tumour assessment
S0276,ARM3,OS,Overall survival (death in the simulated horizon),168,1,censored at last simulated contact
S0277,ARM3,PFS,Progression-free survival (detected at assessment),64,1,censored at last tumour assessment
S0277,ARM3,OS,Overall survival (death in the simulated horizon),168,1,censored at last simulated contact
S0278,ARM4,PFS,Progression-free survival (detected at assessment),64,1,censored at last tumour assessment
S0278,ARM4,OS,Overall survival (death in the simulated horizon),168,1,censored at last simulated contact
S0279,ARM4,PFS,Progression-free survival (detected at assessment),64,0,progression detected at scheduled tumour assessment
S0279,ARM4,OS,Overall survival (death in the simulated horizon),148,1,censored at last simulated contact
S0280,ARM3,PFS,Progression-free survival (detected at assessment),64,1,censored at last tumour assessment
S0280,ARM3,OS,Overall survival (death in the simulated horizon),168,1,censored at last simulated contact
S0281,ARM3,PFS,Progression-free survival (detected at assessment),64,1,censored at last tumour assessment
S0281,ARM3,OS,Overall survival (death in the simulated horizon),168,1,censored at last simulated contact
S0282,ARM4,PFS,Progression-free survival (detected at assessment),64,1,censored at last tumour assessment
S0282,ARM4,OS,Overall survival (death in the simulated horizon),168,1,censored at last simulated contact
S0283,ARM1,PFS,Progression-free survival (detected at assessment),64,0,progression detected at scheduled tumour assessment
S0283,ARM1,OS,Overall survival (death in the simulated horizon),148,1,censored at last simulated contact
S0284,ARM3,PFS,Progression-free survival (detected at assessment),64,1,censored at last tumour assessment
S0284,ARM3,OS,Overall survival (death in the simulated horizon),168,1,censored at last simulated contact
S0285,ARM1,PFS,Progression-free survival (detected at assessment),64,0,progression detected at scheduled tumour assessment
S0285,ARM1,OS,Overall survival (death in the simulated horizon),148,1,censored at last simulated contact
S0286,ARM1,PFS,Progression-free survival (detected at assessment),64,1,censored at last tumour assessment
S0286,ARM1,OS,Overall survival (death in the simulated horizon),168,1,censored at last simulated contact
S0287,ARM3,PFS,Progression-free survival (detected at assessment),64,1,censored at last tumour assessment
S0287,ARM3,OS,Overall survival (death in the simulated horizon),168,1,censored at last simulated contact
S0288,ARM3,PFS,Progression-free survival (detected at assessment),64,1,censored at last tumour assessment
S0288,ARM3,OS,Overall survival (death in the simulated horizon),168,1,censored at last simulated contact
S0289,ARM2,PFS,Progression-free survival (detected at assessment),64,1,censored at last tumour assessment
S0289,ARM2,OS,Overall survival (death in the simulated horizon),168,1,censored at last simulated contact
S0290,ARM4,PFS,Progression-free survival (detected at assessment),64,1,censored at last tumour assessment
S0290,ARM4,OS,Overall survival (death in the simulated horizon),168,1,censored at last simulated contact
S0291,ARM2,PFS,Progression-free survival (detected at assessment),64,0,progression detected at scheduled tumour assessment
S0291,ARM2,OS,Overall survival (death in the simulated horizon),148,1,censored at last simulated contact
S0292,ARM4,PFS,Progression-free survival (detected at assessment),64,1,censored at last tumour assessment
S0292,ARM4,OS,Overall survival (death in the simulated horizon),651,0,death
S0293,ARM4,PFS,Progression-free survival (detected at assessment),64,0,progression detected at scheduled tumour assessment
S0293,ARM4,OS,Overall survival (death in the simulated horizon),148,1,censored at last simulated contact
S0294,ARM1,PFS,Progression-free survival (detected at assessment),64,1,censored at last tumour assessment
S0294,ARM1,OS,Overall survival (death in the simulated horizon),168,1,censored at last simulated contact
S0295,ARM3,PFS,Progression-free survival (detected at assessment),18,1,censored at last tumour assessment
S0295,ARM3,OS,Overall survival (death in the simulated horizon),18,0,death
S0296,ARM4,PFS,Progression-free survival (detected at assessment),64,0,progression detected at scheduled tumour assessment
S0296,ARM4,OS,Overall survival (death in the simulated horizon),148,1,censored at last simulated contact
S0297,ARM1,PFS,Progression-free survival (detected at assessment),64,1,censored at last tumour assessment
S0297,ARM1,OS,Overall survival (death in the simulated horizon),168,1,censored at last simulated contact
S0298,ARM2,PFS,Progression-free survival (detected at assessment),64,1,censored at last tumour assessment
S0298,ARM2,OS,Overall survival (death in the simulated horizon),168,1,censored at last simulated contact
S0299,ARM2,PFS,Progression-free survival (detected at assessment),64,1,censored at last tumour assessment
S0299,ARM2,OS,Overall survival (death in the simulated horizon),168,1,censored at last simulated contact
S0300,ARM1,PFS,Progression-free survival (detected at assessment),64,1,censored at last tumour assessment
S0300,ARM1,OS,Overall survival (death in the simulated horizon),168,1,censored at last simulated contact
S0301,ARM4,PFS,Progression-free survival (detected at assessment),38,1,censored at last tumour assessment
S0301,ARM4,OS,Overall survival (death in the simulated horizon),122,1,censored at last simulated contact
S0302,ARM3,PFS,Progression-free survival (detected at assessment),64,0,progression detected at scheduled tumour assessment
S0302,ARM3,OS,Overall survival (death in the simulated horizon),148,1,censored at last simulated contact
S0303,ARM1,PFS,Progression-free survival (detected at assessment),64,1,censored at last tumour assessment
S0303,ARM1,OS,Overall survival (death in the simulated horizon),168,1,censored at last simulated contact
S0304,ARM3,PFS,Progression-free survival (detected at assessment),64,0,progression detected at scheduled tumour assessment
S0304,ARM3,OS,Overall survival (death in the simulated horizon),148,1,censored at last simulated contact
S0305,ARM1,PFS,Progression-free survival (detected at assessment),64,0,progression detected at scheduled tumour assessment
S0305,ARM1,OS,Overall survival (death in the simulated horizon),148,1,censored at last simulated contact
S0306,ARM2,PFS,Progression-free survival (detected at assessment),64,0,progression detected at scheduled tumour assessment
S0306,ARM2,OS,Overall survival (death in the simulated horizon),148,1,censored at last simulated contact
S0307,ARM3,PFS,Progression-free survival (detected at assessment),64,0,progression detected at scheduled tumour assessment
S0307,ARM3,OS,Overall survival (death in the simulated horizon),148,1,censored at last simulated contact
S0308,ARM4,PFS,Progression-free survival (detected at assessment),64,1,censored at last tumour assessment
S0308,ARM4,OS,Overall survival (death in the simulated horizon),168,1,censored at last simulated contact
S0309,ARM4,PFS,Progression-free survival (detected at assessment),64,0,progression detected at scheduled tumour assessment
S0309,ARM4,OS,Overall survival (death in the simulated horizon),148,1,censored at last simulated contact
S0310,ARM2,PFS,Progression-free survival (detected at assessment),64,1,censored at last tumour assessment
S0310,ARM2,OS,Overall survival (death in the simulated horizon),168,1,censored at last simulated contact
S0311,ARM1,PFS,Progression-free survival (detected at assessment),64,1,censored at last tumour assessment
S0311,ARM1,OS,Overall survival (death in the simulated horizon),168,1,censored at last simulated contact
S0312,ARM1,PFS,Progression-free survival (detected at assessment),64,0,progression detected at scheduled tumour assessment
S0312,ARM1,OS,Overall survival (death in the simulated horizon),148,1,censored at last simulated contact
S0313,ARM1,PFS,Progression-free survival (detected at assessment),64,0,progression detected at scheduled tumour assessment
S0313,ARM1,OS,Overall survival (death in the simulated horizon),148,1,censored at last simulated contact
S0314,ARM3,PFS,Progression-free survival (detected at assessment),64,1,censored at last tumour assessment
S0314,ARM3,OS,Overall survival (death in the simulated horizon),168,1,censored at last simulated contact
S0315,ARM1,PFS,Progression-free survival (detected at assessment),64,1,censored at last tumour assessment
S0315,ARM1,OS,Overall survival (death in the simulated horizon),168,1,censored at last simulated contact
S0316,ARM3,PFS,Progression-free survival (detected at assessment),64,0,progression detected at scheduled tumour assessment
S0316,ARM3,OS,Overall survival (death in the simulated horizon),148,1,censored at last simulated contact
S0317,ARM3,PFS,Progression-free survival (detected at assessment),64,1,censored at last tumour assessment
S0317,ARM3,OS,Overall survival (death in the simulated horizon),168,1,censored at last simulated contact
S0318,ARM3,PFS,Progression-free survival (detected at assessment),64,1,censored at last tumour assessment
S0318,ARM3,OS,Overall survival (death in the simulated horizon),697,0,death
S0319,ARM1,PFS,Progression-free survival (detected at assessment),64,1,censored at last tumour assessment
S0319,ARM1,OS,Overall survival (death in the simulated horizon),168,1,censored at last simulated contact
S0320,ARM3,PFS,Progression-free survival (detected at assessment),64,1,censored at last tumour assessment
S0320,ARM3,OS,Overall survival (death in the simulated horizon),168,1,censored at last simulated contact
S0321,ARM1,PFS,Progression-free survival (detected at assessment),64,0,progression detected at scheduled tumour assessment
S0321,ARM1,OS,Overall survival (death in the simulated horizon),148,1,censored at last simulated contact
S0322,ARM2,PFS,Progression-free survival (detected at assessment),64,1,censored at last tumour assessment
S0322,ARM2,OS,Overall survival (death in the simulated horizon),168,1,censored at last simulated contact
S0323,ARM2,PFS,Progression-free survival (detected at assessment),55,1,censored at last tumour assessment
S0323,ARM2,OS,Overall survival (death in the simulated horizon),139,1,censored at last simulated contact
S0324,ARM2,PFS,Progression-free survival (detected at assessment),64,1,censored at last tumour assessment
S0324,ARM2,OS,Overall survival (death in the simulated horizon),168,1,censored at last simulated contact
S0325,ARM4,PFS,Progression-free survival (detected at assessment),64,0,progression detected at scheduled tumour assessment
S0325,ARM4,OS,Overall survival (death in the simulated horizon),148,1,censored at last simulated contact
S0326,ARM3,PFS,Progression-free survival (detected at assessment),64,0,progression detected at scheduled tumour assessment
S0326,ARM3,OS,Overall survival (death in the simulated horizon),473,0,death
S0327,ARM4,PFS,Progression-free survival (detected at assessment),43,1,censored at last tumour assessment
S0327,ARM4,OS,Overall survival (death in the simulated horizon),127,1,censored at last simulated contact
S0328,ARM2,PFS,Progression-free survival (detected at assessment),64,1,censored at last tumour assessment
S0328,ARM2,OS,Overall survival (death in the simulated horizon),298,0,death
S0329,ARM2,PFS,Progression-free survival (detected at assessment),64,0,progression detected at scheduled tumour assessment
S0329,ARM2,OS,Overall survival (death in the simulated horizon),148,1,censored at last simulated contact
S0330,ARM1,PFS,Progression-free survival (detected at assessment),64,1,censored at last tumour assessment
S0330,ARM1,OS,Overall survival (death in the simulated horizon),168,1,censored at last simulated contact
S0331,ARM2,PFS,Progression-free survival (detected at assessment),64,1,censored at last tumour assessment
S0331,ARM2,OS,Overall survival (death in the simulated horizon),168,1,censored at last simulated contact
S0332,ARM2,PFS,Progression-free survival (detected at assessment),64,1,censored at last tumour assessment
S0332,ARM2,OS,Overall survival (death in the simulated horizon),168,1,censored at last simulated contact
S0333,ARM3,PFS,Progression-free survival (detected at assessment),64,1,censored at last tumour assessment
S0333,ARM3,OS,Overall survival (death in the simulated horizon),168,1,censored at last simulated contact
S0334,ARM2,PFS,Progression-free survival (detected at assessment),64,0,progression detected at scheduled tumour assessment
S0334,ARM2,OS,Overall survival (death in the simulated horizon),148,1,censored at last simulated contact
S0335,ARM2,PFS,Progression-free survival (detected at assessment),25,1,censored at last tumour assessment
S0335,ARM2,OS,Overall survival (death in the simulated horizon),109,1,censored at last simulated contact
S0336,ARM3,PFS,Progression-free survival (detected at assessment),64,1,censored at last tumour assessment
S0336,ARM3,OS,Overall survival (death in the simulated horizon),168,1,censored at last simulated contact
S0337,ARM4,PFS,Progression-free survival (detected at assessment),64,1,censored at last tumour assessment
S0337,ARM4,OS,Overall survival (death in the simulated horizon),168,1,censored at last simulated contact
S0338,ARM4,PFS,Progression-free survival (detected at assessment),64,1,censored at last tumour assessment
S0338,ARM4,OS,Overall survival (death in the simulated horizon),168,1,censored at last simulated contact
S0339,ARM1,PFS,Progression-free survival (detected at assessment),28,1,censored at last tumour assessment
S0339,ARM1,OS,Overall survival (death in the simulated horizon),112,1,censored at last simulated contact
S0340,ARM4,PFS,Progression-free survival (detected at assessment),64,1,censored at last tumour assessment
S0340,ARM4,OS,Overall survival (death in the simulated horizon),168,1,censored at last simulated contact
S0341,ARM4,PFS,Progression-free survival (detected at assessment),64,1,censored at last tumour assessment
S0341,ARM4,OS,Overall survival (death in the simulated horizon),168,1,censored at last simulated contact
S0342,ARM4,PFS,Progression-free survival (detected at assessment),64,1,censored at last tumour assessment
S0342,ARM4,OS,Overall survival (death in the simulated horizon),168,1,censored at last simulated contact
S0343,ARM1,PFS,Progression-free survival (detected at assessment),64,1,censored at last tumour assessment
S0343,ARM1,OS,Overall survival (death in the simulated horizon),168,1,censored at last simulated contact
S0344,ARM2,PFS,Progression-free survival (detected at assessment),64,1,censored at last tumour assessment
S0344,ARM2,OS,Overall survival (death in the simulated horizon),168,1,censored at last simulated contact
S0345,ARM1,PFS,Progression-free survival (detected at assessment),64,0,progression detected at scheduled tumour assessment
S0345,ARM1,OS,Overall survival (death in the simulated horizon),148,1,censored at last simulated contact
S0346,ARM2,PFS,Progression-free survival (detected at assessment),41,1,censored at last tumour assessment
S0346,ARM2,OS,Overall survival (death in the simulated horizon),624,0,death
S0347,ARM4,PFS,Progression-free survival (detected at assessment),64,0,progression detected at scheduled tumour assessment
S0347,ARM4,OS,Overall survival (death in the simulated horizon),148,1,censored at last simulated contact
S0348,ARM4,PFS,Progression-free survival (detected at assessment),64,1,censored at last tumour assessment
S0348,ARM4,OS,Overall survival (death in the simulated horizon),168,1,censored at last simulated contact
S0349,ARM3,PFS,Progression-free survival (detected at assessment),64,1,censored at last tumour assessment
S0349,ARM3,OS,Overall survival (death in the simulated horizon),168,1,censored at last simulated contact
S0350,ARM1,PFS,Progression-free survival (detected at assessment),64,1,censored at last tumour assessment
S0350,ARM1,OS,Overall survival (death in the simulated horizon),168,1,censored at last simulated contact
S0351,ARM4,PFS,Progression-free survival (detected at assessment),64,1,censored at last tumour assessment
S0351,ARM4,OS,Overall survival (death in the simulated horizon),565,0,death
S0352,ARM4,PFS,Progression-free survival (detected at assessment),35,1,censored at last tumour assessment
S0352,ARM4,OS,Overall survival (death in the simulated horizon),119,1,censored at last simulated contact
S0353,ARM4,PFS,Progression-free survival (detected at assessment),64,0,progression detected at scheduled tumour assessment
S0353,ARM4,OS,Overall survival (death in the simulated horizon),148,1,censored at last simulated contact
S0354,ARM2,PFS,Progression-free survival (detected at assessment),64,1,censored at last tumour assessment
S0354,ARM2,OS,Overall survival (death in the simulated horizon),168,1,censored at last simulated contact
S0355,ARM2,PFS,Progression-free survival (detected at assessment),8,1,censored at last tumour assessment
S0355,ARM2,OS,Overall survival (death in the simulated horizon),92,1,censored at last simulated contact
S0356,ARM3,PFS,Progression-free survival (detected at assessment),64,1,censored at last tumour assessment
S0356,ARM3,OS,Overall survival (death in the simulated horizon),168,1,censored at last simulated contact
S0357,ARM1,PFS,Progression-free survival (detected at assessment),64,0,progression detected at scheduled tumour assessment
S0357,ARM1,OS,Overall survival (death in the simulated horizon),148,1,censored at last simulated contact
S0358,ARM3,PFS,Progression-free survival (detected at assessment),64,1,censored at last tumour assessment
S0358,ARM3,OS,Overall survival (death in the simulated horizon),168,1,censored at last simulated contact
S0359,ARM4,PFS,Progression-free survival (detected at assessment),34,1,censored at last tumour assessment
S0359,ARM4,OS,Overall survival (death in the simulated horizon),118,1,censored at last simulated contact
S0360,ARM2,PFS,Progression-free survival (detected at assessment),64,1,censored at last tumour assessment
S0360,ARM2,OS,Overall survival (death in the simulated horizon),168,1,censored at last simulated contact
S0361,ARM3,PFS,Progression-free survival (detected at assessment),64,1,censored at last tumour assessment
S0361,ARM3,OS,Overall survival (death in the simulated horizon),168,1,censored at last simulated contact
S0362,ARM3,PFS,Progression-free survival (detected at assessment),37,1,censored at last tumour assessment
S0362,ARM3,OS,Overall survival (death in the simulated horizon),37,0,death
S0363,ARM2,PFS,Progression-free survival (detected at assessment),64,1,censored at last tumour assessment
S0363,ARM2,OS,Overall survival (death in the simulated horizon),168,1,censored at last simulated contact
S0364,ARM1,PFS,Progression-free survival (detected at assessment),64,0,progression detected at scheduled tumour assessment
S0364,ARM1,OS,Overall survival (death in the simulated horizon),148,1,censored at last simulated contact
S0365,ARM1,PFS,Progression-free survival (detected at assessment),64,1,censored at last tumour assessment
S0365,ARM1,OS,Overall survival (death in the simulated horizon),168,1,censored at last simulated contact
S0366,ARM2,PFS,Progression-free survival (detected at assessment),64,1,censored at last tumour assessment
S0366,ARM2,OS,Overall survival (death in the simulated horizon),168,1,censored at last simulated contact
S0367,ARM4,PFS,Progression-free survival (detected at assessment),16,1,censored at last tumour assessment
S0367,ARM4,OS,Overall survival (death in the simulated horizon),100,1,censored at last simulated contact
S0368,ARM3,PFS,Progression-free survival (detected at assessment),12,1,censored at last tumour assessment
S0368,ARM3,OS,Overall survival (death in the simulated horizon),96,1,censored at last simulated contact
S0369,ARM2,PFS,Progression-free survival (detected at assessment),64,1,censored at last tumour assessment
S0369,ARM2,OS,Overall survival (death in the simulated horizon),168,1,censored at last simulated contact
S0370,ARM4,PFS,Progression-free survival (detected at assessment),64,0,progression detected at scheduled tumour assessment
S0370,ARM4,OS,Overall survival (death in the simulated horizon),148,1,censored at last simulated contact
S0371,ARM4,PFS,Progression-free survival (detected at assessment),64,1,censored at last tumour assessment
S0371,ARM4,OS,Overall survival (death in the simulated horizon),168,1,censored at last simulated contact
S0372,ARM2,PFS,Progression-free survival (detected at assessment),64,0,progression detected at scheduled tumour assessment
S0372,ARM2,OS,Overall survival (death in the simulated horizon),148,1,censored at last simulated contact
