USUBJID,TRLNKID,TRTESTCD,TRORRES,TRORRESU,TRDY,VISIT
S0002,T01,LDIAM,44.2,mm,0,BASELINE
S0002,T02,LDIAM,22.0,mm,0,BASELINE
S0002,T03,LDIAM,17.8,mm,0,BASELINE
S0002,T04,LDIAM,32.7,mm,0,BASELINE
S0002,,SUMDIAM,116.7,mm,0,BASELINE
S0002,T01,LDIAM,47.1,mm,84,TA1
S0002,T02,LDIAM,23.4,mm,84,TA1
S0002,T03,LDIAM,19.0,mm,84,TA1
S0002,T04,LDIAM,34.8,mm,84,TA1
S0002,,SUMDIAM,124.4,mm,84,TA1
S0004,T01,LDIAM,17.5,mm,0,BASELINE
S0004,T02,LDIAM,17.9,mm,0,BASELINE
S0004,T03,LDIAM,27.9,mm,0,BASELINE
S0004,T04,LDIAM,17.3,mm,0,BASELINE
S0004,T05,LDIAM,37.1,mm,0,BASELINE
S0004,,SUMDIAM,117.7,mm,0,BASELINE
S0008,T01,LDIAM,43.1,mm,0,BASELINE
S0008,,SUMDIAM,43.1,mm,0,BASELINE
S0008,T01,LDIAM,44.9,mm,84,TA1
S0008,,SUMDIAM,44.9,mm,84,TA1
S0008,T01,LDIAM,46.8,mm,168,TA2
S0008,,SUMDIAM,46.8,mm,168,TA2
S0008,T01,LDIAM,46.8,mm,252,TA3
S0008,,SUMDIAM,46.8,mm,252,TA3
S0008,T01,LDIAM,53.9,mm,336,TA4
S0008,,SUMDIAM,53.9,mm,336,TA4
S0009,T01,LDIAM,46.8,mm,0,BASELINE
S0009,T02,LDIAM,26.8,mm,0,BASELINE
S0009,T03,LDIAM,38.4,mm,0,BASELINE
S0009,T04,LDIAM,37.3,mm,0,BASELINE
S0009,T05,LDIAM,28.0,mm,0,BASELINE
S0009,,SUMDIAM,177.3,mm,0,BASELINE
S0009,T01,LDIAM,41.2,mm,84,TA1
S0009,T02,LDIAM,23.6,mm,84,TA1
S0009,T03,LDIAM,33.8,mm,84,TA1
S0009,T04,LDIAM,32.9,mm,84,TA1
S0009,T05,LDIAM,24.7,mm,84,TA1
S0009,,SUMDIAM,156.2,mm,84,TA1
S0009,T01,LDIAM,35.7,mm,168,TA2
S0009,T02,LDIAM,20.4,mm,168,TA2
S0009,T03,LDIAM,29.3,mm,168,TA2
S0009,T04,LDIAM,28.4,mm,168,TA2
S0009,T05,LDIAM,21.3,mm,168,TA2
S0009,,SUMDIAM,135.1,mm,168,TA2
S0009,T01,LDIAM,35.7,mm,252,TA3
S0009,T02,LDIAM,20.4,mm,252,TA3
S0009,T03,LDIAM,29.3,mm,252,TA3
S0009,T04,LDIAM,28.4,mm,252,TA3
S0009,T05,LDIAM,21.3,mm,252,TA3
S0009,,SUMDIAM,135.1,mm,252,TA3
S0009,T01,LDIAM,35.7,mm,336,TA4
S0009,T02,LDIAM,20.4,mm,336,TA4
S0009,T03,LDIAM,29.3,mm,336,TA4
S0009,T04,LDIAM,28.4,mm,336,TA4
S0009,T05,LDIAM,21.3,mm,336,TA4
S0009,,SUMDIAM,135.1,mm,336,TA4
S0009,T01,LDIAM,45.1,mm,420,TA5
S0009,T02,LDIAM,25.8,mm,420,TA5
S0009,T03,LDIAM,37.0,mm,420,TA5
S0009,T04,LDIAM,36.0,mm,420,TA5
S0009,T05,LDIAM,27.0,mm,420,TA5
S0009,,SUMDIAM,171.0,mm,420,TA5
S0010,T01,LDIAM,50.8,mm,0,BASELINE
S0010,,SUMDIAM,50.8,mm,0,BASELINE
S0010,T01,LDIAM,54.3,mm,84,TA1
S0010,,SUMDIAM,54.3,mm,84,TA1
S0010,T01,LDIAM,57.8,mm,168,TA2
S0010,,SUMDIAM,57.8,mm,168,TA2
S0010,T01,LDIAM,57.8,mm,252,TA3
S0010,,SUMDIAM,57.8,mm,252,TA3
S0010,T01,LDIAM,57.8,mm,336,TA4
S0010,,SUMDIAM,57.8,mm,336,TA4
S0012,T01,LDIAM,17.8,mm,0,BASELINE
S0012,T02,LDIAM,55.7,mm,0,BASELINE
S0012,T03,LDIAM,54.7,mm,0,BASELINE
S0012,,SUMDIAM,128.2,mm,0,BASELINE
S0012,T01,LDIAM,22.2,mm,84,TA1
S0012,T02,LDIAM,69.6,mm,84,TA1
S0012,T03,LDIAM,68.4,mm,84,TA1
S0012,,SUMDIAM,160.2,mm,84,TA1
S0013,T01,LDIAM,20.4,mm,0,BASELINE
S0013,T02,LDIAM,26.0,mm,0,BASELINE
S0013,T03,LDIAM,33.0,mm,0,BASELINE
S0013,,SUMDIAM,79.4,mm,0,BASELINE
S0013,T01,LDIAM,18.2,mm,84,TA1
S0013,T02,LDIAM,23.2,mm,84,TA1
S0013,T03,LDIAM,29.4,mm,84,TA1
S0013,,SUMDIAM,70.7,mm,84,TA1
S0013,T01,LDIAM,15.9,mm,168,TA2
S0013,T02,LDIAM,20.3,mm,168,TA2
S0013,T03,LDIAM,25.8,mm,168,TA2
S0013,,SUMDIAM,62.0,mm,168,TA2
S0013,T01,LDIAM,15.9,mm,252,TA3
S0013,T02,LDIAM,20.3,mm,252,TA3
S0013,T03,LDIAM,25.8,mm,252,TA3
S0013,,SUMDIAM,62.0,mm,252,TA3
S0013,T01,LDIAM,15.9,mm,336,TA4
S0013,T02,LDIAM,20.3,mm,336,TA4
S0013,T03,LDIAM,25.8,mm,336,TA4
S0013,,SUMDIAM,62.0,mm,336,TA4
S0014,T01,LDIAM,30.1,mm,0,BASELINE
S0014,,SUMDIAM,30.1,mm,0,BASELINE
S0014,T01,LDIAM,17.3,mm,84,TA1
S0014,,SUMDIAM,17.3,mm,84,TA1
S0015,T01,LDIAM,31.1,mm,0,BASELINE
S0015,T02,LDIAM,50.1,mm,0,BASELINE
S0015,,SUMDIAM,81.2,mm,0,BASELINE
S0017,T01,LDIAM,21.7,mm,0,BASELINE
S0017,T02,LDIAM,58.9,mm,0,BASELINE
S0017,,SUMDIAM,80.6,mm,0,BASELINE
S0017,T01,LDIAM,27.1,mm,84,TA1
S0017,T02,LDIAM,73.6,mm,84,TA1
S0017,,SUMDIAM,100.8,mm,84,TA1
S0018,T01,LDIAM,25.2,mm,0,BASELINE
S0018,T02,LDIAM,18.7,mm,0,BASELINE
S0018,,SUMDIAM,43.9,mm,0,BASELINE
S0018,T01,LDIAM,24.4,mm,84,TA1
S0018,T02,LDIAM,18.1,mm,84,TA1
S0018,,SUMDIAM,42.5,mm,84,TA1
S0018,T01,LDIAM,23.6,mm,168,TA2
S0018,T02,LDIAM,17.5,mm,168,TA2
S0018,,SUMDIAM,41.0,mm,168,TA2
S0018,T01,LDIAM,29.5,mm,252,TA3
S0018,T02,LDIAM,21.9,mm,252,TA3
S0018,,SUMDIAM,51.4,mm,252,TA3
S0021,T01,LDIAM,56.8,mm,0,BASELINE
S0021,T02,LDIAM,47.6,mm,0,BASELINE
S0021,T03,LDIAM,45.3,mm,0,BASELINE
S0021,,SUMDIAM,149.7,mm,0,BASELINE
S0021,T01,LDIAM,53.2,mm,84,TA1
S0021,T02,LDIAM,44.5,mm,84,TA1
S0021,T03,LDIAM,42.4,mm,84,TA1
S0021,,SUMDIAM,140.1,mm,84,TA1
S0026,T01,LDIAM,43.6,mm,0,BASELINE
S0026,T02,LDIAM,45.9,mm,0,BASELINE
S0026,T03,LDIAM,26.9,mm,0,BASELINE
S0026,T04,LDIAM,48.2,mm,0,BASELINE
S0026,,SUMDIAM,164.6,mm,0,BASELINE
S0026,T01,LDIAM,40.8,mm,84,TA1
S0026,T02,LDIAM,43.0,mm,84,TA1
S0026,T03,LDIAM,25.2,mm,84,TA1
S0026,T04,LDIAM,45.1,mm,84,TA1
S0026,,SUMDIAM,154.0,mm,84,TA1
S0026,T01,LDIAM,51.1,mm,168,TA2
S0026,T02,LDIAM,53.8,mm,168,TA2
S0026,T03,LDIAM,31.5,mm,168,TA2
S0026,T04,LDIAM,56.5,mm,168,TA2
S0026,,SUMDIAM,193.0,mm,168,TA2
S0028,T01,LDIAM,17.3,mm,0,BASELINE
S0028,T02,LDIAM,24.4,mm,0,BASELINE
S0028,T03,LDIAM,15.6,mm,0,BASELINE
S0028,T04,LDIAM,18.3,mm,0,BASELINE
S0028,,SUMDIAM,75.6,mm,0,BASELINE
S0028,T01,LDIAM,15.8,mm,84,TA1
S0028,T02,LDIAM,22.3,mm,84,TA1
S0028,T03,LDIAM,14.2,mm,84,TA1
S0028,T04,LDIAM,16.7,mm,84,TA1
S0028,,SUMDIAM,69.0,mm,84,TA1
S0029,T01,LDIAM,23.5,mm,0,BASELINE
S0029,T02,LDIAM,55.2,mm,0,BASELINE
S0029,T03,LDIAM,42.4,mm,0,BASELINE
S0029,T04,LDIAM,18.7,mm,0,BASELINE
S0029,T05,LDIAM,12.1,mm,0,BASELINE
S0029,,SUMDIAM,151.9,mm,0,BASELINE
S0029,T01,LDIAM,24.8,mm,84,TA1
S0029,T02,LDIAM,58.2,mm,84,TA1
S0029,T03,LDIAM,44.7,mm,84,TA1
S0029,T04,LDIAM,19.7,mm,84,TA1
S0029,T05,LDIAM,12.8,mm,84,TA1
S0029,,SUMDIAM,160.1,mm,84,TA1
S0030,T01,LDIAM,15.6,mm,0,BASELINE
S0030,,SUMDIAM,15.6,mm,0,BASELINE
S0030,T01,LDIAM,15.0,mm,84,TA1
S0030,,SUMDIAM,15.0,mm,84,TA1
S0030,T01,LDIAM,14.3,mm,168,TA2
S0030,,SUMDIAM,14.3,mm,168,TA2
S0033,T01,LDIAM,22.8,mm,0,BASELINE
S0033,T02,LDIAM,29.0,mm,0,BASELINE
S0033,T03,LDIAM,51.6,mm,0,BASELINE
S0033,T04,LDIAM,24.3,mm,0,BASELINE
S0033,,SUMDIAM,127.7,mm,0,BASELINE
S0033,T01,LDIAM,12.5,mm,84,TA1
S0033,T02,LDIAM,15.9,mm,84,TA1
S0033,T03,LDIAM,28.2,mm,84,TA1
S0033,T04,LDIAM,13.3,mm,84,TA1
S0033,,SUMDIAM,69.8,mm,84,TA1
S0033,T01,LDIAM,2.1,mm,168,TA2
S0033,T02,LDIAM,2.7,mm,168,TA2
S0033,T03,LDIAM,4.8,mm,168,TA2
S0033,T04,LDIAM,2.3,mm,168,TA2
S0033,,SUMDIAM,12.0,mm,168,TA2
S0035,T01,LDIAM,56.7,mm,0,BASELINE
S0035,T02,LDIAM,27.2,mm,0,BASELINE
S0035,,SUMDIAM,83.9,mm,0,BASELINE
S0035,T01,LDIAM,51.2,mm,84,TA1
S0035,T02,LDIAM,24.6,mm,84,TA1
S0035,,SUMDIAM,75.8,mm,84,TA1
S0035,T01,LDIAM,45.7,mm,168,TA2
S0035,T02,LDIAM,21.9,mm,168,TA2
S0035,,SUMDIAM,67.7,mm,168,TA2
S0035,T01,LDIAM,45.7,mm,252,TA3
S0035,T02,LDIAM,21.9,mm,252,TA3
S0035,,SUMDIAM,67.7,mm,252,TA3
S0035,T01,LDIAM,45.7,mm,336,TA4
S0035,T02,LDIAM,21.9,mm,336,TA4
S0035,,SUMDIAM,67.7,mm,336,TA4
S0035,T01,LDIAM,45.7,mm,420,TA5
S0035,T02,LDIAM,21.9,mm,420,TA5
S0035,,SUMDIAM,67.7,mm,420,TA5
S0035,T01,LDIAM,45.7,mm,504,TA6
S0035,T02,LDIAM,21.9,mm,504,TA6
S0035,,SUMDIAM,67.7,mm,504,TA6
S0035,T01,LDIAM,45.7,mm,588,TA7
S0035,T02,LDIAM,21.9,mm,588,TA7
S0035,,SUMDIAM,67.7,mm,588,TA7
S0035,T01,LDIAM,45.7,mm,672,TA8
S0035,T02,LDIAM,21.9,mm,672,TA8
S0035,,SUMDIAM,67.7,mm,672,TA8
S0035,T01,LDIAM,45.7,mm,756,TA9
S0035,T02,LDIAM,21.9,mm,756,TA9
S0035,,SUMDIAM,67.7,mm,756,TA9
S0035,T01,LDIAM,45.7,mm,840,TA10
S0035,T02,LDIAM,21.9,mm,840,TA10
S0035,,SUMDIAM,67.7,mm,840,TA10
S0039,T01,LDIAM,45.6,mm,0,BASELINE
S0039,T02,LDIAM,41.1,mm,0,BASELINE
S0039,,SUMDIAM,86.7,mm,0,BASELINE
S0039,T01,LDIAM,39.6,mm,84,TA1
S0039,T02,LDIAM,35.7,mm,84,TA1
S0039,,SUMDIAM,75.4,mm,84,TA1
S0039,T01,LDIAM,33.7,mm,168,TA2
S0039,T02,LDIAM,30.3,mm,168,TA2
S0039,,SUMDIAM,64.0,mm,168,TA2
S0039,T01,LDIAM,33.7,mm,252,TA3
S0039,T02,LDIAM,30.3,mm,252,TA3
S0039,,SUMDIAM,64.0,mm,252,TA3
S0039,T01,LDIAM,33.7,mm,336,TA4
S0039,T02,LDIAM,30.3,mm,336,TA4
S0039,,SUMDIAM,64.0,mm,336,TA4
S0039,T01,LDIAM,42.7,mm,420,TA5
S0039,T02,LDIAM,38.5,mm,420,TA5
S0039,,SUMDIAM,81.1,mm,420,TA5
S0040,T01,LDIAM,24.5,mm,0,BASELINE
S0040,T02,LDIAM,23.7,mm,0,BASELINE
S0040,,SUMDIAM,48.2,mm,0,BASELINE
S0040,T01,LDIAM,22.7,mm,84,TA1
S0040,T02,LDIAM,22.0,mm,84,TA1
S0040,,SUMDIAM,44.7,mm,84,TA1
S0040,T01,LDIAM,20.9,mm,168,TA2
S0040,T02,LDIAM,20.3,mm,168,TA2
S0040,,SUMDIAM,41.2,mm,168,TA2
S0040,T01,LDIAM,20.9,mm,252,TA3
S0040,T02,LDIAM,20.3,mm,252,TA3
S0040,,SUMDIAM,41.2,mm,252,TA3
S0040,T01,LDIAM,20.9,mm,336,TA4
S0040,T02,LDIAM,20.3,mm,336,TA4
S0040,,SUMDIAM,41.2,mm,336,TA4
S0040,T01,LDIAM,20.9,mm,420,TA5
S0040,T02,LDIAM,20.3,mm,420,TA5
S0040,,SUMDIAM,41.2,mm,420,TA5
S0040,T01,LDIAM,26.4,mm,504,TA6
S0040,T02,LDIAM,25.5,mm,504,TA6
S0040,,SUMDIAM,51.9,mm,504,TA6
S0041,T01,LDIAM,23.1,mm,0,BASELINE
S0041,T02,LDIAM,21.5,mm,0,BASELINE
S0041,T03,LDIAM,15.0,mm,0,BASELINE
S0041,,SUMDIAM,59.6,mm,0,BASELINE
S0041,T01,LDIAM,24.7,mm,84,TA1
S0041,T02,LDIAM,23.0,mm,84,TA1
S0041,T03,LDIAM,16.1,mm,84,TA1
S0041,,SUMDIAM,63.8,mm,84,TA1
S0042,T01,LDIAM,56.0,mm,0,BASELINE
S0042,T02,LDIAM,48.9,mm,0,BASELINE
S0042,T03,LDIAM,10.8,mm,0,BASELINE
S0042,T04,LDIAM,46.6,mm,0,BASELINE
S0042,,SUMDIAM,162.3,mm,0,BASELINE
S0042,T01,LDIAM,54.0,mm,84,TA1
S0042,T02,LDIAM,47.1,mm,84,TA1
S0042,T03,LDIAM,10.4,mm,84,TA1
S0042,T04,LDIAM,44.9,mm,84,TA1
S0042,,SUMDIAM,156.5,mm,84,TA1
S0042,T01,LDIAM,52.0,mm,168,TA2
S0042,T02,LDIAM,45.4,mm,168,TA2
S0042,T03,LDIAM,10.0,mm,168,TA2
S0042,T04,LDIAM,43.2,mm,168,TA2
S0042,,SUMDIAM,150.6,mm,168,TA2
S0042,T01,LDIAM,52.0,mm,252,TA3
S0042,T02,LDIAM,45.4,mm,252,TA3
S0042,T03,LDIAM,10.0,mm,252,TA3
S0042,T04,LDIAM,43.2,mm,252,TA3
S0042,,SUMDIAM,150.6,mm,252,TA3
S0042,T01,LDIAM,52.0,mm,336,TA4
S0042,T02,LDIAM,45.4,mm,336,TA4
S0042,T03,LDIAM,10.0,mm,336,TA4
S0042,T04,LDIAM,43.2,mm,336,TA4
S0042,,SUMDIAM,150.6,mm,336,TA4
S0042,T01,LDIAM,52.0,mm,420,TA5
S0042,T02,LDIAM,45.4,mm,420,TA5
S0042,T03,LDIAM,10.0,mm,420,TA5
S0042,T04,LDIAM,43.2,mm,420,TA5
S0042,,SUMDIAM,150.6,mm,420,TA5
S0042,T01,LDIAM,52.0,mm,504,TA6
S0042,T02,LDIAM,45.4,mm,504,TA6
S0042,T03,LDIAM,10.0,mm,504,TA6
S0042,T04,LDIAM,43.2,mm,504,TA6
S0042,,SUMDIAM,150.6,mm,504,TA6
S0042,T01,LDIAM,52.0,mm,588,TA7
S0042,T02,LDIAM,45.4,mm,588,TA7
S0042,T03,LDIAM,10.0,mm,588,TA7
S0042,T04,LDIAM,43.2,mm,588,TA7
S0042,,SUMDIAM,150.6,mm,588,TA7
S0042,T01,LDIAM,52.0,mm,672,TA8
S0042,T02,LDIAM,45.4,mm,672,TA8
S0042,T03,LDIAM,10.0,mm,672,TA8
S0042,T04,LDIAM,43.2,mm,672,TA8
S0042,,SUMDIAM,150.6,mm,672,TA8
S0045,T01,LDIAM,32.8,mm,0,BASELINE
S0045,T02,LDIAM,12.5,mm,0,BASELINE
S0045,,SUMDIAM,45.3,mm,0,BASELINE
S0045,T01,LDIAM,41.0,mm,84,TA1
S0045,T02,LDIAM,15.6,mm,84,TA1
S0045,,SUMDIAM,56.6,mm,84,TA1
S0046,T01,LDIAM,39.2,mm,0,BASELINE
S0046,T02,LDIAM,58.8,mm,0,BASELINE
S0046,T03,LDIAM,42.2,mm,0,BASELINE
S0046,T04,LDIAM,14.6,mm,0,BASELINE
S0046,T05,LDIAM,42.7,mm,0,BASELINE
S0046,,SUMDIAM,197.5,mm,0,BASELINE
S0046,T01,LDIAM,49.0,mm,84,TA1
S0046,T02,LDIAM,73.5,mm,84,TA1
S0046,T03,LDIAM,52.8,mm,84,TA1
S0046,T04,LDIAM,18.2,mm,84,TA1
S0046,T05,LDIAM,53.4,mm,84,TA1
S0046,,SUMDIAM,246.9,mm,84,TA1
S0048,T01,LDIAM,38.7,mm,0,BASELINE
S0048,T02,LDIAM,16.5,mm,0,BASELINE
S0048,T03,LDIAM,19.0,mm,0,BASELINE
S0048,T04,LDIAM,37.3,mm,0,BASELINE
S0048,,SUMDIAM,111.5,mm,0,BASELINE
S0048,T01,LDIAM,35.4,mm,84,TA1
S0048,T02,LDIAM,15.1,mm,84,TA1
S0048,T03,LDIAM,17.4,mm,84,TA1
S0048,T04,LDIAM,34.1,mm,84,TA1
S0048,,SUMDIAM,102.0,mm,84,TA1
S0048,T01,LDIAM,32.1,mm,168,TA2
S0048,T02,LDIAM,13.7,mm,168,TA2
S0048,T03,LDIAM,15.8,mm,168,TA2
S0048,T04,LDIAM,30.9,mm,168,TA2
S0048,,SUMDIAM,92.5,mm,168,TA2
S0048,T01,LDIAM,32.1,mm,252,TA3
S0048,T02,LDIAM,13.7,mm,252,TA3
S0048,T03,LDIAM,15.8,mm,252,TA3
S0048,T04,LDIAM,30.9,mm,252,TA3
S0048,,SUMDIAM,92.5,mm,252,TA3
S0049,T01,LDIAM,42.8,mm,0,BASELINE
S0049,T02,LDIAM,14.0,mm,0,BASELINE
S0049,,SUMDIAM,56.8,mm,0,BASELINE
S0049,T01,LDIAM,43.3,mm,84,TA1
S0049,T02,LDIAM,14.2,mm,84,TA1
S0049,,SUMDIAM,57.5,mm,84,TA1
S0053,T01,LDIAM,40.7,mm,0,BASELINE
S0053,T02,LDIAM,23.6,mm,0,BASELINE
S0053,T03,LDIAM,11.1,mm,0,BASELINE
S0053,T04,LDIAM,13.9,mm,0,BASELINE
S0053,,SUMDIAM,89.3,mm,0,BASELINE
S0053,T01,LDIAM,29.8,mm,84,TA1
S0053,T02,LDIAM,17.3,mm,84,TA1
S0053,T03,LDIAM,8.1,mm,84,TA1
S0053,T04,LDIAM,10.2,mm,84,TA1
S0053,,SUMDIAM,65.4,mm,84,TA1
S0053,T01,LDIAM,18.9,mm,168,TA2
S0053,T02,LDIAM,11.0,mm,168,TA2
S0053,T03,LDIAM,5.2,mm,168,TA2
S0053,T04,LDIAM,6.5,mm,168,TA2
S0053,,SUMDIAM,41.5,mm,168,TA2
S0053,T01,LDIAM,18.9,mm,252,TA3
S0053,T02,LDIAM,11.0,mm,252,TA3
S0053,T03,LDIAM,5.2,mm,252,TA3
S0053,T04,LDIAM,6.5,mm,252,TA3
S0053,,SUMDIAM,41.5,mm,252,TA3
S0053,T01,LDIAM,18.9,mm,336,TA4
S0053,T02,LDIAM,11.0,mm,336,TA4
S0053,T03,LDIAM,5.2,mm,336,TA4
S0053,T04,LDIAM,6.5,mm,336,TA4
S0053,,SUMDIAM,41.5,mm,336,TA4
S0055,T01,LDIAM,13.4,mm,0,BASELINE
S0055,T02,LDIAM,17.8,mm,0,BASELINE
S0055,T03,LDIAM,19.8,mm,0,BASELINE
S0055,T04,LDIAM,16.6,mm,0,BASELINE
S0055,,SUMDIAM,67.6,mm,0,BASELINE
S0055,T01,LDIAM,12.3,mm,84,TA1
S0055,T02,LDIAM,16.4,mm,84,TA1
S0055,T03,LDIAM,18.2,mm,84,TA1
S0055,T04,LDIAM,15.3,mm,84,TA1
S0055,,SUMDIAM,62.1,mm,84,TA1
S0057,T01,LDIAM,53.2,mm,0,BASELINE
S0057,T02,LDIAM,18.0,mm,0,BASELINE
S0057,T03,LDIAM,27.6,mm,0,BASELINE
S0057,T04,LDIAM,45.5,mm,0,BASELINE
S0057,,SUMDIAM,144.3,mm,0,BASELINE
S0057,T01,LDIAM,43.0,mm,84,TA1
S0057,T02,LDIAM,14.6,mm,84,TA1
S0057,T03,LDIAM,22.3,mm,84,TA1
S0057,T04,LDIAM,36.8,mm,84,TA1
S0057,,SUMDIAM,116.7,mm,84,TA1
S0001,T01,LDIAM,40.7,mm,0,BASELINE
S0001,T02,LDIAM,56.9,mm,0,BASELINE
S0001,T03,LDIAM,42.4,mm,0,BASELINE
S0001,T04,LDIAM,34.2,mm,0,BASELINE
S0001,T05,LDIAM,48.0,mm,0,BASELINE
S0001,,SUMDIAM,222.2,mm,0,BASELINE
S0001,T01,LDIAM,20.4,mm,84,TA1
S0001,T02,LDIAM,28.4,mm,84,TA1
S0001,T03,LDIAM,21.2,mm,84,TA1
S0001,T04,LDIAM,17.1,mm,84,TA1
S0001,T05,LDIAM,24.0,mm,84,TA1
S0001,,SUMDIAM,111.1,mm,84,TA1
S0001,T01,LDIAM,0.0,mm,168,TA2
S0001,T02,LDIAM,0.0,mm,168,TA2
S0001,T03,LDIAM,0.0,mm,168,TA2
S0001,T04,LDIAM,0.0,mm,168,TA2
S0001,T05,LDIAM,0.0,mm,168,TA2
S0001,,SUMDIAM,0.0,mm,168,TA2
S0001,T01,LDIAM,2.0,mm,252,TA3
S0001,T02,LDIAM,2.8,mm,252,TA3
S0001,T03,LDIAM,2.1,mm,252,TA3
S0001,T04,LDIAM,1.7,mm,252,TA3
S0001,T05,LDIAM,2.4,mm,252,TA3
S0001,,SUMDIAM,11.1,mm,252,TA3
S0001,T01,LDIAM,2.0,mm,336,TA4
S0001,T02,LDIAM,2.8,mm,336,TA4
S0001,T03,LDIAM,2.1,mm,336,TA4
S0001,T04,LDIAM,1.7,mm,336,TA4
S0001,T05,LDIAM,2.4,mm,336,TA4
S0001,,SUMDIAM,11.1,mm,336,TA4
S0001,T01,LDIAM,2.0,mm,420,TA5
S0001,T02,LDIAM,2.8,mm,420,TA5
S0001,T03,LDIAM,2.1,mm,420,TA5
S0001,T04,LDIAM,1.7,mm,420,TA5
S0001,T05,LDIAM,2.4,mm,420,TA5
S0001,,SUMDIAM,11.1,mm,420,TA5
S0001,T01,LDIAM,2.0,mm,504,TA6
S0001,T02,LDIAM,2.8,mm,504,TA6
S0001,T03,LDIAM,2.1,mm,504,TA6
S0001,T04,LDIAM,1.7,mm,504,TA6
S0001,T05,LDIAM,2.4,mm,504,TA6
S0001,,SUMDIAM,11.1,mm,504,TA6
S0001,T01,LDIAM,2.0,mm,588,TA7
S0001,T02,LDIAM,2.8,mm,588,TA7
S0001,T03,LDIAM,2.1,mm,588,TA7
S0001,T04,LDIAM,1.7,mm,588,TA7
S0001,T05,LDIAM,2.4,mm,588,TA7
S0001,,SUMDIAM,11.1,mm,588,TA7
S0001,T01,LDIAM,2.0,mm,672,TA8
S0001,T02,LDIAM,2.8,mm,672,TA8
S0001,T03,LDIAM,2.1,mm,672,TA8
S0001,T04,LDIAM,1.7,mm,672,TA8
S0001,T05,LDIAM,2.4,mm,672,TA8
S0001,,SUMDIAM,11.1,mm,672,TA8
S0001,T01,LDIAM,2.0,mm,756,TA9
S0001,T02,LDIAM,2.8,mm,756,TA9
S0001,T03,LDIAM,2.1,mm,756,TA9
S0001,T04,LDIAM,1.7,mm,756,TA9
S0001,T05,LDIAM,2.4,mm,756,TA9
S0001,,SUMDIAM,11.1,mm,756,TA9
S0001,T01,LDIAM,2.0,mm,840,TA10
S0001,T02,LDIAM,2.8,mm,840,TA10
S0001,T03,LDIAM,2.1,mm,840,TA10
S0001,T04,LDIAM,1.7,mm,840,TA10
S0001,T05,LDIAM,2.4,mm,840,TA10
S0001,,SUMDIAM,11.1,mm,840,TA10
S0001,T01,LDIAM,2.0,mm,924,TA11
S0001,T02,LDIAM,2.8,mm,924,TA11
S0001,T03,LDIAM,2.1,mm,924,TA11
S0001,T04,LDIAM,1.7,mm,924,TA11
S0001,T05,LDIAM,2.4,mm,924,TA11
S0001,,SUMDIAM,11.1,mm,924,TA11
S0001,T01,LDIAM,2.0,mm,1008,TA12
S0001,T02,LDIAM,2.8,mm,1008,TA12
S0001,T03,LDIAM,2.1,mm,1008,TA12
S0001,T04,LDIAM,1.7,mm,1008,TA12
S0001,T05,LDIAM,2.4,mm,1008,TA12
S0001,,SUMDIAM,11.1,mm,1008,TA12
S0001,T01,LDIAM,2.0,mm,1092,TA13
S0001,T02,LDIAM,2.8,mm,1092,TA13
S0001,T03,LDIAM,2.1,mm,1092,TA13
S0001,T04,LDIAM,1.7,mm,1092,TA13
S0001,T05,LDIAM,2.4,mm,1092,TA13
S0001,,SUMDIAM,11.1,mm,1092,TA13
S0001,T01,LDIAM,2.0,mm,1176,TA14
S0001,T02,LDIAM,2.8,mm,1176,TA14
S0001,T03,LDIAM,2.1,mm,1176,TA14
S0001,T04,LDIAM,1.7,mm,1176,TA14
S0001,T05,LDIAM,2.4,mm,1176,TA14
S0001,,SUMDIAM,11.1,mm,1176,TA14
S0001,T01,LDIAM,2.0,mm,1260,TA15
S0001,T02,LDIAM,2.8,mm,1260,TA15
S0001,T03,LDIAM,2.1,mm,1260,TA15
S0001,T04,LDIAM,1.7,mm,1260,TA15
S0001,T05,LDIAM,2.4,mm,1260,TA15
S0001,,SUMDIAM,11.1,mm,1260,TA15
S0001,T01,LDIAM,2.0,mm,1344,TA16
S0001,T02,LDIAM,2.8,mm,1344,TA16
S0001,T03,LDIAM,2.1,mm,1344,TA16
S0001,T04,LDIAM,1.7,mm,1344,TA16
S0001,T05,LDIAM,2.4,mm,1344,TA16
S0001,,SUMDIAM,11.1,mm,1344,TA16
S0003,T01,LDIAM,20.3,mm,0,BASELINE
S0003,,SUMDIAM,20.3,mm,0,BASELINE
S0003,T01,LDIAM,11.6,mm,84,TA1
S0003,,SUMDIAM,11.6,mm,84,TA1
S0003,T01,LDIAM,17.6,mm,168,TA2
S0003,,SUMDIAM,17.6,mm,168,TA2
S0005,T01,LDIAM,57.0,mm,0,BASELINE
S0005,T02,LDIAM,12.9,mm,0,BASELINE
S0005,T03,LDIAM,57.6,mm,0,BASELINE
S0005,T04,LDIAM,20.2,mm,0,BASELINE
S0005,,SUMDIAM,147.7,mm,0,BASELINE
S0005,T01,LDIAM,56.3,mm,84,TA1
S0005,T02,LDIAM,12.8,mm,84,TA1
S0005,T03,LDIAM,56.9,mm,84,TA1
S0005,T04,LDIAM,20.0,mm,84,TA1
S0005,,SUMDIAM,146.0,mm,84,TA1
S0005,T01,LDIAM,55.7,mm,168,TA2
S0005,T02,LDIAM,12.6,mm,168,TA2
S0005,T03,LDIAM,56.3,mm,168,TA2
S0005,T04,LDIAM,19.7,mm,168,TA2
S0005,,SUMDIAM,144.3,mm,168,TA2
S0005,T01,LDIAM,55.7,mm,252,TA3
S0005,T02,LDIAM,12.6,mm,252,TA3
S0005,T03,LDIAM,56.3,mm,252,TA3
S0005,T04,LDIAM,19.7,mm,252,TA3
S0005,,SUMDIAM,144.3,mm,252,TA3
S0005,T01,LDIAM,55.7,mm,336,TA4
S0005,T02,LDIAM,12.6,mm,336,TA4
S0005,T03,LDIAM,56.3,mm,336,TA4
S0005,T04,LDIAM,19.7,mm,336,TA4
S0005,,SUMDIAM,144.3,mm,336,TA4
S0005,T01,LDIAM,55.7,mm,420,TA5
S0005,T02,LDIAM,12.6,mm,420,TA5
S0005,T03,LDIAM,56.3,mm,420,TA5
S0005,T04,LDIAM,19.7,mm,420,TA5
S0005,,SUMDIAM,144.3,mm,420,TA5
S0005,T01,LDIAM,55.7,mm,504,TA6
S0005,T02,LDIAM,12.6,mm,504,TA6
S0005,T03,LDIAM,56.3,mm,504,TA6
S0005,T04,LDIAM,19.7,mm,504,TA6
S0005,,SUMDIAM,144.3,mm,504,TA6
S0005,T01,LDIAM,55.7,mm,588,TA7
S0005,T02,LDIAM,12.6,mm,588,TA7
S0005,T03,LDIAM,56.3,mm,588,TA7
S0005,T04,LDIAM,19.7,mm,588,TA7
S0005,,SUMDIAM,144.3,mm,588,TA7
S0005,T01,LDIAM,55.7,mm,672,TA8
S0005,T02,LDIAM,12.6,mm,672,TA8
S0005,T03,LDIAM,56.3,mm,672,TA8
S0005,T04,LDIAM,19.7,mm,672,TA8
S0005,,SUMDIAM,144.3,mm,672,TA8
S0005,T01,LDIAM,55.7,mm,756,TA9
S0005,T02,LDIAM,12.6,mm,756,TA9
S0005,T03,LDIAM,56.3,mm,756,TA9
S0005,T04,LDIAM,19.7,mm,756,TA9
S0005,,SUMDIAM,144.3,mm,756,TA9
S0006,T01,LDIAM,41.8,mm,0,BASELINE
S0006,,SUMDIAM,41.8,mm,0,BASELINE
S0006,T01,LDIAM,43.2,mm,84,TA1
S0006,,SUMDIAM,43.2,mm,84,TA1
S0006,T01,LDIAM,44.7,mm,168,TA2
S0006,,SUMDIAM,44.7,mm,168,TA2
S0006,T01,LDIAM,44.7,mm,252,TA3
S0006,,SUMDIAM,44.7,mm,252,TA3
S0006,T01,LDIAM,44.7,mm,336,TA4
S0006,,SUMDIAM,44.7,mm,336,TA4
S0006,T01,LDIAM,44.7,mm,420,TA5
S0006,,SUMDIAM,44.7,mm,420,TA5
S0006,T01,LDIAM,44.7,mm,504,TA6
S0006,,SUMDIAM,44.7,mm,504,TA6
S0006,T01,LDIAM,44.7,mm,588,TA7
S0006,,SUMDIAM,44.7,mm,588,TA7
S0006,T01,LDIAM,44.7,mm,672,TA8
S0006,,SUMDIAM,44.7,mm,672,TA8
S0006,T01,LDIAM,52.2,mm,756,TA9
S0006,,SUMDIAM,52.2,mm,756,TA9
S0007,T01,LDIAM,35.0,mm,0,BASELINE
S0007,T02,LDIAM,16.7,mm,0,BASELINE
S0007,T03,LDIAM,41.1,mm,0,BASELINE
S0007,,SUMDIAM,92.8,mm,0,BASELINE
S0007,T01,LDIAM,35.5,mm,84,TA1
S0007,T02,LDIAM,16.9,mm,84,TA1
S0007,T03,LDIAM,41.7,mm,84,TA1
S0007,,SUMDIAM,94.1,mm,84,TA1
S0007,T01,LDIAM,35.9,mm,168,TA2
S0007,T02,LDIAM,17.2,mm,168,TA2
S0007,T03,LDIAM,42.2,mm,168,TA2
S0007,,SUMDIAM,95.3,mm,168,TA2
S0007,T01,LDIAM,35.9,mm,252,TA3
S0007,T02,LDIAM,17.2,mm,252,TA3
S0007,T03,LDIAM,42.2,mm,252,TA3
S0007,,SUMDIAM,95.3,mm,252,TA3
S0007,T01,LDIAM,35.9,mm,336,TA4
S0007,T02,LDIAM,17.2,mm,336,TA4
S0007,T03,LDIAM,42.2,mm,336,TA4
S0007,,SUMDIAM,95.3,mm,336,TA4
S0007,T01,LDIAM,35.9,mm,420,TA5
S0007,T02,LDIAM,17.2,mm,420,TA5
S0007,T03,LDIAM,42.2,mm,420,TA5
S0007,,SUMDIAM,95.3,mm,420,TA5
S0007,T01,LDIAM,43.8,mm,504,TA6
S0007,T02,LDIAM,20.9,mm,504,TA6
S0007,T03,LDIAM,51.4,mm,504,TA6
S0007,,SUMDIAM,116.0,mm,504,TA6
S0011,T01,LDIAM,59.8,mm,0,BASELINE
S0011,,SUMDIAM,59.8,mm,0,BASELINE
S0011,T01,LDIAM,64.2,mm,84,TA1
S0011,,SUMDIAM,64.2,mm,84,TA1
S0011,T01,LDIAM,68.6,mm,168,TA2
S0011,,SUMDIAM,68.6,mm,168,TA2
S0011,T01,LDIAM,68.6,mm,252,TA3
S0011,,SUMDIAM,68.6,mm,252,TA3
S0011,T01,LDIAM,68.6,mm,336,TA4
S0011,,SUMDIAM,68.6,mm,336,TA4
S0011,T01,LDIAM,68.6,mm,420,TA5
S0011,,SUMDIAM,68.6,mm,420,TA5
S0011,T01,LDIAM,74.8,mm,504,TA6
S0011,,SUMDIAM,74.8,mm,504,TA6
S0016,T01,LDIAM,39.6,mm,0,BASELINE
S0016,T02,LDIAM,41.0,mm,0,BASELINE
S0016,T03,LDIAM,44.1,mm,0,BASELINE
S0016,T04,LDIAM,12.2,mm,0,BASELINE
S0016,,SUMDIAM,136.9,mm,0,BASELINE
S0016,T01,LDIAM,35.8,mm,84,TA1
S0016,T02,LDIAM,37.1,mm,84,TA1
S0016,T03,LDIAM,39.9,mm,84,TA1
S0016,T04,LDIAM,11.0,mm,84,TA1
S0016,,SUMDIAM,123.8,mm,84,TA1
S0019,T01,LDIAM,53.2,mm,0,BASELINE
S0019,T02,LDIAM,15.3,mm,0,BASELINE
S0019,T03,LDIAM,15.7,mm,0,BASELINE
S0019,T04,LDIAM,51.4,mm,0,BASELINE
S0019,,SUMDIAM,135.6,mm,0,BASELINE
S0019,T01,LDIAM,66.5,mm,84,TA1
S0019,T02,LDIAM,19.1,mm,84,TA1
S0019,T03,LDIAM,19.6,mm,84,TA1
S0019,T04,LDIAM,64.2,mm,84,TA1
S0019,,SUMDIAM,169.5,mm,84,TA1
S0020,T01,LDIAM,31.0,mm,0,BASELINE
S0020,,SUMDIAM,31.0,mm,0,BASELINE
S0020,T01,LDIAM,18.2,mm,84,TA1
S0020,,SUMDIAM,18.2,mm,84,TA1
S0020,T01,LDIAM,5.5,mm,168,TA2
S0020,,SUMDIAM,5.5,mm,168,TA2
S0020,T01,LDIAM,5.5,mm,252,TA3
S0020,,SUMDIAM,5.5,mm,252,TA3
S0020,T01,LDIAM,5.5,mm,336,TA4
S0020,,SUMDIAM,5.5,mm,336,TA4
S0020,T01,LDIAM,5.5,mm,420,TA5
S0020,,SUMDIAM,5.5,mm,420,TA5
S0020,T01,LDIAM,5.5,mm,504,TA6
S0020,,SUMDIAM,5.5,mm,504,TA6
S0020,T01,LDIAM,5.5,mm,588,TA7
S0020,,SUMDIAM,5.5,mm,588,TA7
S0020,T01,LDIAM,5.5,mm,672,TA8
S0020,,SUMDIAM,5.5,mm,672,TA8
S0020,T01,LDIAM,11.5,mm,756,TA9
S0020,,SUMDIAM,11.5,mm,756,TA9
S0020,T01,LDIAM,11.5,mm,840,TA10
S0020,,SUMDIAM,11.5,mm,840,TA10
S0020,T01,LDIAM,11.5,mm,924,TA11
S0020,,SUMDIAM,11.5,mm,924,TA11
S0020,T01,LDIAM,11.5,mm,1008,TA12
S0020,,SUMDIAM,11.5,mm,1008,TA12
S0020,T01,LDIAM,11.5,mm,1092,TA13
S0020,,SUMDIAM,11.5,mm,1092,TA13
S0020,T01,LDIAM,11.5,mm,1176,TA14
S0020,,SUMDIAM,11.5,mm,1176,TA14
S0022,T01,LDIAM,16.7,mm,0,BASELINE
S0022,T02,LDIAM,35.3,mm,0,BASELINE
S0022,T03,LDIAM,14.1,mm,0,BASELINE
S0022,T04,LDIAM,14.2,mm,0,BASELINE
S0022,,SUMDIAM,80.3,mm,0,BASELINE
S0022,T01,LDIAM,8.3,mm,84,TA1
S0022,T02,LDIAM,17.6,mm,84,TA1
S0022,T03,LDIAM,7.0,mm,84,TA1
S0022,T04,LDIAM,7.1,mm,84,TA1
S0022,,SUMDIAM,40.1,mm,84,TA1
S0023,T01,LDIAM,23.8,mm,0,BASELINE
S0023,T02,LDIAM,58.4,mm,0,BASELINE
S0023,T03,LDIAM,52.1,mm,0,BASELINE
S0023,T04,LDIAM,26.6,mm,0,BASELINE
S0023,,SUMDIAM,160.9,mm,0,BASELINE
S0023,T01,LDIAM,13.7,mm,84,TA1
S0023,T02,LDIAM,33.7,mm,84,TA1
S0023,T03,LDIAM,30.0,mm,84,TA1
S0023,T04,LDIAM,15.3,mm,84,TA1
S0023,,SUMDIAM,92.7,mm,84,TA1
S0024,T01,LDIAM,57.4,mm,0,BASELINE
S0024,T02,LDIAM,38.6,mm,0,BASELINE
S0024,T03,LDIAM,47.1,mm,0,BASELINE
S0024,T04,LDIAM,35.2,mm,0,BASELINE
S0024,T05,LDIAM,59.7,mm,0,BASELINE
S0024,,SUMDIAM,238.0,mm,0,BASELINE
S0024,T01,LDIAM,51.1,mm,84,TA1
S0024,T02,LDIAM,34.3,mm,84,TA1
S0024,T03,LDIAM,41.9,mm,84,TA1
S0024,T04,LDIAM,31.3,mm,84,TA1
S0024,T05,LDIAM,53.1,mm,84,TA1
S0024,,SUMDIAM,211.7,mm,84,TA1
S0024,T01,LDIAM,44.7,mm,168,TA2
S0024,T02,LDIAM,30.1,mm,168,TA2
S0024,T03,LDIAM,36.7,mm,168,TA2
S0024,T04,LDIAM,27.4,mm,168,TA2
S0024,T05,LDIAM,46.5,mm,168,TA2
S0024,,SUMDIAM,185.4,mm,168,TA2
S0024,T01,LDIAM,44.7,mm,252,TA3
S0024,T02,LDIAM,30.1,mm,252,TA3
S0024,T03,LDIAM,36.7,mm,252,TA3
S0024,T04,LDIAM,27.4,mm,252,TA3
S0024,T05,LDIAM,46.5,mm,252,TA3
S0024,,SUMDIAM,185.4,mm,252,TA3
S0024,T01,LDIAM,44.7,mm,336,TA4
S0024,T02,LDIAM,30.1,mm,336,TA4
S0024,T03,LDIAM,36.7,mm,336,TA4
S0024,T04,LDIAM,27.4,mm,336,TA4
S0024,T05,LDIAM,46.5,mm,336,TA4
S0024,,SUMDIAM,185.4,mm,336,TA4
S0024,T01,LDIAM,44.7,mm,420,TA5
S0024,T02,LDIAM,30.1,mm,420,TA5
S0024,T03,LDIAM,36.7,mm,420,TA5
S0024,T04,LDIAM,27.4,mm,420,TA5
S0024,T05,LDIAM,46.5,mm,420,TA5
S0024,,SUMDIAM,185.4,mm,420,TA5
S0024,T01,LDIAM,44.7,mm,504,TA6
S0024,T02,LDIAM,30.1,mm,504,TA6
S0024,T03,LDIAM,36.7,mm,504,TA6
S0024,T04,LDIAM,27.4,mm,504,TA6
S0024,T05,LDIAM,46.5,mm,504,TA6
S0024,,SUMDIAM,185.4,mm,504,TA6
S0024,T01,LDIAM,44.7,mm,588,TA7
S0024,T02,LDIAM,30.1,mm,588,TA7
S0024,T03,LDIAM,36.7,mm,588,TA7
S0024,T04,LDIAM,27.4,mm,588,TA7
S0024,T05,LDIAM,46.5,mm,588,TA7
S0024,,SUMDIAM,185.4,mm,588,TA7
S0024,T01,LDIAM,56.5,mm,672,TA8
S0024,T02,LDIAM,38.0,mm,672,TA8
S0024,T03,LDIAM,46.4,mm,672,TA8
S0024,T04,LDIAM,34.7,mm,672,TA8
S0024,T05,LDIAM,58.8,mm,672,TA8
S0024,,SUMDIAM,234.4,mm,672,TA8
S0025,T01,LDIAM,15.8,mm,0,BASELINE
S0025,T02,LDIAM,52.5,mm,0,BASELINE
S0025,T03,LDIAM,10.4,mm,0,BASELINE
S0025,T04,LDIAM,28.0,mm,0,BASELINE
S0025,T05,LDIAM,52.3,mm,0,BASELINE
S0025,,SUMDIAM,159.0,mm,0,BASELINE
S0025,T01,LDIAM,16.6,mm,84,TA1
S0025,T02,LDIAM,55.1,mm,84,TA1
S0025,T03,LDIAM,10.9,mm,84,TA1
S0025,T04,LDIAM,29.4,mm,84,TA1
S0025,T05,LDIAM,54.9,mm,84,TA1
S0025,,SUMDIAM,166.8,mm,84,TA1
S0025,T01,LDIAM,17.3,mm,168,TA2
S0025,T02,LDIAM,57.6,mm,168,TA2
S0025,T03,LDIAM,11.4,mm,168,TA2
S0025,T04,LDIAM,30.7,mm,168,TA2
S0025,T05,LDIAM,57.4,mm,168,TA2
S0025,,SUMDIAM,174.5,mm,168,TA2
S0027,T01,LDIAM,28.8,mm,0,BASELINE
S0027,T02,LDIAM,38.4,mm,0,BASELINE
S0027,T03,LDIAM,50.3,mm,0,BASELINE
S0027,T04,LDIAM,17.5,mm,0,BASELINE
S0027,T05,LDIAM,33.8,mm,0,BASELINE
S0027,,SUMDIAM,168.8,mm,0,BASELINE
S0027,T01,LDIAM,29.7,mm,84,TA1
S0027,T02,LDIAM,39.6,mm,84,TA1
S0027,T03,LDIAM,51.9,mm,84,TA1
S0027,T04,LDIAM,18.1,mm,84,TA1
S0027,T05,LDIAM,34.9,mm,84,TA1
S0027,,SUMDIAM,174.2,mm,84,TA1
S0031,T01,LDIAM,47.7,mm,0,BASELINE
S0031,T02,LDIAM,56.9,mm,0,BASELINE
S0031,T03,LDIAM,31.4,mm,0,BASELINE
S0031,T04,LDIAM,42.2,mm,0,BASELINE
S0031,,SUMDIAM,178.2,mm,0,BASELINE
S0031,T01,LDIAM,40.1,mm,84,TA1
S0031,T02,LDIAM,47.8,mm,84,TA1
S0031,T03,LDIAM,26.4,mm,84,TA1
S0031,T04,LDIAM,35.4,mm,84,TA1
S0031,,SUMDIAM,149.6,mm,84,TA1
S0032,T01,LDIAM,19.0,mm,0,BASELINE
S0032,T02,LDIAM,17.1,mm,0,BASELINE
S0032,T03,LDIAM,47.8,mm,0,BASELINE
S0032,T04,LDIAM,39.1,mm,0,BASELINE
S0032,T05,LDIAM,55.1,mm,0,BASELINE
S0032,,SUMDIAM,178.1,mm,0,BASELINE
S0032,T01,LDIAM,16.7,mm,84,TA1
S0032,T02,LDIAM,15.0,mm,84,TA1
S0032,T03,LDIAM,42.0,mm,84,TA1
S0032,T04,LDIAM,34.4,mm,84,TA1
S0032,T05,LDIAM,48.5,mm,84,TA1
S0032,,SUMDIAM,156.6,mm,84,TA1
S0032,T01,LDIAM,14.4,mm,168,TA2
S0032,T02,LDIAM,13.0,mm,168,TA2
S0032,T03,LDIAM,36.3,mm,168,TA2
S0032,T04,LDIAM,29.7,mm,168,TA2
S0032,T05,LDIAM,41.8,mm,168,TA2
S0032,,SUMDIAM,135.2,mm,168,TA2
S0032,T01,LDIAM,14.4,mm,252,TA3
S0032,T02,LDIAM,13.0,mm,252,TA3
S0032,T03,LDIAM,36.3,mm,252,TA3
S0032,T04,LDIAM,29.7,mm,252,TA3
S0032,T05,LDIAM,41.8,mm,252,TA3
S0032,,SUMDIAM,135.2,mm,252,TA3
S0032,T01,LDIAM,14.4,mm,336,TA4
S0032,T02,LDIAM,13.0,mm,336,TA4
S0032,T03,LDIAM,36.3,mm,336,TA4
S0032,T04,LDIAM,29.7,mm,336,TA4
S0032,T05,LDIAM,41.8,mm,336,TA4
S0032,,SUMDIAM,135.2,mm,336,TA4
S0032,T01,LDIAM,18.3,mm,420,TA5
S0032,T02,LDIAM,16.4,mm,420,TA5
S0032,T03,LDIAM,45.9,mm,420,TA5
S0032,T04,LDIAM,37.6,mm,420,TA5
S0032,T05,LDIAM,52.9,mm,420,TA5
S0032,,SUMDIAM,171.1,mm,420,TA5
S0034,T01,LDIAM,51.7,mm,0,BASELINE
S0034,T02,LDIAM,51.2,mm,0,BASELINE
S0034,,SUMDIAM,102.9,mm,0,BASELINE
S0034,T01,LDIAM,64.6,mm,84,TA1
S0034,T02,LDIAM,64.0,mm,84,TA1
S0034,,SUMDIAM,128.6,mm,84,TA1
S0036,T01,LDIAM,22.1,mm,0,BASELINE
S0036,,SUMDIAM,22.1,mm,0,BASELINE
S0036,T01,LDIAM,28.1,mm,84,TA1
S0036,,SUMDIAM,28.1,mm,84,TA1
S0037,T01,LDIAM,34.9,mm,0,BASELINE
S0037,T02,LDIAM,23.5,mm,0,BASELINE
S0037,,SUMDIAM,58.4,mm,0,BASELINE
S0037,T01,LDIAM,30.9,mm,84,TA1
S0037,T02,LDIAM,20.8,mm,84,TA1
S0037,,SUMDIAM,51.7,mm,84,TA1
S0038,T01,LDIAM,46.6,mm,0,BASELINE
S0038,T02,LDIAM,36.6,mm,0,BASELINE
S0038,T03,LDIAM,58.3,mm,0,BASELINE
S0038,T04,LDIAM,13.7,mm,0,BASELINE
S0038,T05,LDIAM,35.6,mm,0,BASELINE
S0038,,SUMDIAM,190.8,mm,0,BASELINE
S0038,T01,LDIAM,50.1,mm,84,TA1
S0038,T02,LDIAM,39.4,mm,84,TA1
S0038,T03,LDIAM,62.7,mm,84,TA1
S0038,T04,LDIAM,14.7,mm,84,TA1
S0038,T05,LDIAM,38.3,mm,84,TA1
S0038,,SUMDIAM,205.2,mm,84,TA1
S0038,T01,LDIAM,53.6,mm,168,TA2
S0038,T02,LDIAM,42.1,mm,168,TA2
S0038,T03,LDIAM,67.1,mm,168,TA2
S0038,T04,LDIAM,15.8,mm,168,TA2
S0038,T05,LDIAM,41.0,mm,168,TA2
S0038,,SUMDIAM,219.6,mm,168,TA2
S0038,T01,LDIAM,53.6,mm,252,TA3
S0038,T02,LDIAM,42.1,mm,252,TA3
S0038,T03,LDIAM,67.1,mm,252,TA3
S0038,T04,LDIAM,15.8,mm,252,TA3
S0038,T05,LDIAM,41.0,mm,252,TA3
S0038,,SUMDIAM,219.6,mm,252,TA3
S0038,T01,LDIAM,53.6,mm,336,TA4
S0038,T02,LDIAM,42.1,mm,336,TA4
S0038,T03,LDIAM,67.1,mm,336,TA4
S0038,T04,LDIAM,15.8,mm,336,TA4
S0038,T05,LDIAM,41.0,mm,336,TA4
S0038,,SUMDIAM,219.6,mm,336,TA4
S0038,T01,LDIAM,53.6,mm,420,TA5
S0038,T02,LDIAM,42.1,mm,420,TA5
S0038,T03,LDIAM,67.1,mm,420,TA5
S0038,T04,LDIAM,15.8,mm,420,TA5
S0038,T05,LDIAM,41.0,mm,420,TA5
S0038,,SUMDIAM,219.6,mm,420,TA5
S0038,T01,LDIAM,53.6,mm,504,TA6
S0038,T02,LDIAM,42.1,mm,504,TA6
S0038,T03,LDIAM,67.1,mm,504,TA6
S0038,T04,LDIAM,15.8,mm,504,TA6
S0038,T05,LDIAM,41.0,mm,504,TA6
S0038,,SUMDIAM,219.6,mm,504,TA6
S0038,T01,LDIAM,53.6,mm,588,TA7
S0038,T02,LDIAM,42.1,mm,588,TA7
S0038,T03,LDIAM,67.1,mm,588,TA7
S0038,T04,LDIAM,15.8,mm,588,TA7
S0038,T05,LDIAM,41.0,mm,588,TA7
S0038,,SUMDIAM,219.6,mm,588,TA7
S0038,T01,LDIAM,58.2,mm,672,TA8
S0038,T02,LDIAM,45.8,mm,672,TA8
S0038,T03,LDIAM,72.9,mm,672,TA8
S0038,T04,LDIAM,17.1,mm,672,TA8
S0038,T05,LDIAM,44.5,mm,672,TA8
S0038,,SUMDIAM,238.5,mm,672,TA8
S0043,T01,LDIAM,43.7,mm,0,BASELINE
S0043,,SUMDIAM,43.7,mm,0,BASELINE
S0043,T01,LDIAM,47.3,mm,84,TA1
S0043,,SUMDIAM,47.3,mm,84,TA1
S0043,T01,LDIAM,50.8,mm,168,TA2
S0043,,SUMDIAM,50.8,mm,168,TA2
S0043,T01,LDIAM,50.8,mm,252,TA3
S0043,,SUMDIAM,50.8,mm,252,TA3
S0043,T01,LDIAM,50.8,mm,336,TA4
S0043,,SUMDIAM,50.8,mm,336,TA4
S0043,T01,LDIAM,54.6,mm,420,TA5
S0043,,SUMDIAM,54.6,mm,420,TA5
S0044,T01,LDIAM,51.5,mm,0,BASELINE
S0044,,SUMDIAM,51.5,mm,0,BASELINE
S0044,T01,LDIAM,51.6,mm,84,TA1
S0044,,SUMDIAM,51.6,mm,84,TA1
S0044,T01,LDIAM,51.6,mm,168,TA2
S0044,,SUMDIAM,51.6,mm,168,TA2
S0044,T01,LDIAM,51.6,mm,252,TA3
S0044,,SUMDIAM,51.6,mm,252,TA3
S0047,T01,LDIAM,39.3,mm,0,BASELINE
S0047,T02,LDIAM,54.8,mm,0,BASELINE
S0047,T03,LDIAM,47.5,mm,0,BASELINE
S0047,,SUMDIAM,141.6,mm,0,BASELINE
S0047,T01,LDIAM,41.8,mm,84,TA1
S0047,T02,LDIAM,58.3,mm,84,TA1
S0047,T03,LDIAM,50.5,mm,84,TA1
S0047,,SUMDIAM,150.6,mm,84,TA1
S0050,T01,LDIAM,28.3,mm,0,BASELINE
S0050,,SUMDIAM,28.3,mm,0,BASELINE
S0050,T01,LDIAM,15.5,mm,84,TA1
S0050,,SUMDIAM,15.5,mm,84,TA1
S0050,T01,LDIAM,2.7,mm,168,TA2
S0050,,SUMDIAM,2.7,mm,168,TA2
S0050,T01,LDIAM,2.7,mm,252,TA3
S0050,,SUMDIAM,2.7,mm,252,TA3
S0050,T01,LDIAM,2.7,mm,336,TA4
S0050,,SUMDIAM,2.7,mm,336,TA4
S0050,T01,LDIAM,2.7,mm,420,TA5
S0050,,SUMDIAM,2.7,mm,420,TA5
S0050,T01,LDIAM,2.7,mm,504,TA6
S0050,,SUMDIAM,2.7,mm,504,TA6
S0050,T01,LDIAM,8.7,mm,588,TA7
S0050,,SUMDIAM,8.7,mm,588,TA7
S0051,T01,LDIAM,41.0,mm,0,BASELINE
S0051,T02,LDIAM,45.8,mm,0,BASELINE
S0051,T03,LDIAM,24.3,mm,0,BASELINE
S0051,,SUMDIAM,111.1,mm,0,BASELINE
S0051,T01,LDIAM,42.9,mm,84,TA1
S0051,T02,LDIAM,47.9,mm,84,TA1
S0051,T03,LDIAM,25.4,mm,84,TA1
S0051,,SUMDIAM,116.3,mm,84,TA1
S0051,T01,LDIAM,44.8,mm,168,TA2
S0051,T02,LDIAM,50.1,mm,168,TA2
S0051,T03,LDIAM,26.6,mm,168,TA2
S0051,,SUMDIAM,121.5,mm,168,TA2
S0051,T01,LDIAM,44.8,mm,252,TA3
S0051,T02,LDIAM,50.1,mm,252,TA3
S0051,T03,LDIAM,26.6,mm,252,TA3
S0051,,SUMDIAM,121.5,mm,252,TA3
S0051,T01,LDIAM,44.8,mm,336,TA4
S0051,T02,LDIAM,50.1,mm,336,TA4
S0051,T03,LDIAM,26.6,mm,336,TA4
S0051,,SUMDIAM,121.5,mm,336,TA4
S0051,T01,LDIAM,51.2,mm,420,TA5
S0051,T02,LDIAM,57.2,mm,420,TA5
S0051,T03,LDIAM,30.4,mm,420,TA5
S0051,,SUMDIAM,138.9,mm,420,TA5
S0052,T01,LDIAM,48.0,mm,0,BASELINE
S0052,T02,LDIAM,47.9,mm,0,BASELINE
S0052,,SUMDIAM,95.9,mm,0,BASELINE
S0052,T01,LDIAM,60.0,mm,84,TA1
S0052,T02,LDIAM,59.9,mm,84,TA1
S0052,,SUMDIAM,119.9,mm,84,TA1
S0054,T01,LDIAM,56.5,mm,0,BASELINE
S0054,T02,LDIAM,25.0,mm,0,BASELINE
S0054,T03,LDIAM,31.5,mm,0,BASELINE
S0054,T04,LDIAM,11.9,mm,0,BASELINE
S0054,,SUMDIAM,124.9,mm,0,BASELINE
S0054,T01,LDIAM,52.1,mm,84,TA1
S0054,T02,LDIAM,23.0,mm,84,TA1
S0054,T03,LDIAM,29.0,mm,84,TA1
S0054,T04,LDIAM,11.0,mm,84,TA1
S0054,,SUMDIAM,115.1,mm,84,TA1
S0056,T01,LDIAM,54.6,mm,0,BASELINE
S0056,T02,LDIAM,53.4,mm,0,BASELINE
S0056,T03,LDIAM,41.2,mm,0,BASELINE
S0056,,SUMDIAM,149.2,mm,0,BASELINE
S0056,T01,LDIAM,30.3,mm,84,TA1
S0056,T02,LDIAM,29.6,mm,84,TA1
S0056,T03,LDIAM,22.9,mm,84,TA1
S0056,,SUMDIAM,82.8,mm,84,TA1
