USUBJID,TRLNKID,TRTESTCD,TRORRES,TRORRESU,TRDY,VISIT
S0001,T01,LDIAM,17.8,mm,0,BASELINE
S0001,T02,LDIAM,23.1,mm,0,BASELINE
S0001,T03,LDIAM,32.9,mm,0,BASELINE
S0001,,SUMDIAM,73.8,mm,0,BASELINE
S0001,T01,LDIAM,19.6,mm,56,TA1
S0001,T02,LDIAM,25.4,mm,56,TA1
S0001,T03,LDIAM,36.2,mm,56,TA1
S0001,,SUMDIAM,81.2,mm,56,TA1
S0001,T01,LDIAM,21.4,mm,112,TA2
S0001,T02,LDIAM,27.7,mm,112,TA2
S0001,T03,LDIAM,39.5,mm,112,TA2
S0001,,SUMDIAM,88.5,mm,112,TA2
S0001,T01,LDIAM,21.4,mm,168,TA3
S0001,T02,LDIAM,27.7,mm,168,TA3
S0001,T03,LDIAM,39.5,mm,168,TA3
S0001,,SUMDIAM,88.5,mm,168,TA3
S0001,T01,LDIAM,25.8,mm,224,TA4
S0001,T02,LDIAM,33.5,mm,224,TA4
S0001,T03,LDIAM,47.7,mm,224,TA4
S0001,,SUMDIAM,107.0,mm,224,TA4
S0003,T01,LDIAM,44.6,mm,0,BASELINE
S0003,T02,LDIAM,16.7,mm,0,BASELINE
S0003,T03,LDIAM,46.7,mm,0,BASELINE
S0003,,SUMDIAM,108.0,mm,0,BASELINE
S0004,T01,LDIAM,40.2,mm,0,BASELINE
S0004,T02,LDIAM,47.8,mm,0,BASELINE
S0004,T03,LDIAM,37.3,mm,0,BASELINE
S0004,T04,LDIAM,58.9,mm,0,BASELINE
S0004,T05,LDIAM,53.7,mm,0,BASELINE
S0004,,SUMDIAM,237.9,mm,0,BASELINE
S0004,T01,LDIAM,38.0,mm,56,TA1
S0004,T02,LDIAM,45.2,mm,56,TA1
S0004,T03,LDIAM,35.3,mm,56,TA1
S0004,T04,LDIAM,55.7,mm,56,TA1
S0004,T05,LDIAM,50.8,mm,56,TA1
S0004,,SUMDIAM,225.0,mm,56,TA1
S0004,T01,LDIAM,35.8,mm,112,TA2
S0004,T02,LDIAM,42.6,mm,112,TA2
S0004,T03,LDIAM,33.3,mm,112,TA2
S0004,T04,LDIAM,52.5,mm,112,TA2
S0004,T05,LDIAM,47.9,mm,112,TA2
S0004,,SUMDIAM,212.1,mm,112,TA2
S0004,T01,LDIAM,35.8,mm,168,TA3
S0004,T02,LDIAM,42.6,mm,168,TA3
S0004,T03,LDIAM,33.3,mm,168,TA3
S0004,T04,LDIAM,52.5,mm,168,TA3
S0004,T05,LDIAM,47.9,mm,168,TA3
S0004,,SUMDIAM,212.1,mm,168,TA3
S0004,T01,LDIAM,35.8,mm,224,TA4
S0004,T02,LDIAM,42.6,mm,224,TA4
S0004,T03,LDIAM,33.3,mm,224,TA4
S0004,T04,LDIAM,52.5,mm,224,TA4
S0004,T05,LDIAM,47.9,mm,224,TA4
S0004,,SUMDIAM,212.1,mm,224,TA4
S0004,T01,LDIAM,35.8,mm,280,TA5
S0004,T02,LDIAM,42.6,mm,280,TA5
S0004,T03,LDIAM,33.3,mm,280,TA5
S0004,T04,LDIAM,52.5,mm,280,TA5
S0004,T05,LDIAM,47.9,mm,280,TA5
S0004,,SUMDIAM,212.1,mm,280,TA5
S0004,T01,LDIAM,35.8,mm,336,TA6
S0004,T02,LDIAM,42.6,mm,336,TA6
S0004,T03,LDIAM,33.3,mm,336,TA6
S0004,T04,LDIAM,52.5,mm,336,TA6
S0004,T05,LDIAM,47.9,mm,336,TA6
S0004,,SUMDIAM,212.1,mm,336,TA6
S0004,T01,LDIAM,35.8,mm,392,TA7
S0004,T02,LDIAM,42.6,mm,392,TA7
S0004,T03,LDIAM,33.3,mm,392,TA7
S0004,T04,LDIAM,52.5,mm,392,TA7
S0004,T05,LDIAM,47.9,mm,392,TA7
S0004,,SUMDIAM,212.1,mm,392,TA7
S0004,T01,LDIAM,35.8,mm,448,TA8
S0004,T02,LDIAM,42.6,mm,448,TA8
S0004,T03,LDIAM,33.3,mm,448,TA8
S0004,T04,LDIAM,52.5,mm,448,TA8
S0004,T05,LDIAM,47.9,mm,448,TA8
S0004,,SUMDIAM,212.1,mm,448,TA8
S0004,T01,LDIAM,35.8,mm,504,TA9
S0004,T02,LDIAM,42.6,mm,504,TA9
S0004,T03,LDIAM,33.3,mm,504,TA9
S0004,T04,LDIAM,52.5,mm,504,TA9
S0004,T05,LDIAM,47.9,mm,504,TA9
S0004,,SUMDIAM,212.1,mm,504,TA9
S0004,T01,LDIAM,35.8,mm,560,TA10
S0004,T02,LDIAM,42.6,mm,560,TA10
S0004,T03,LDIAM,33.3,mm,560,TA10
S0004,T04,LDIAM,52.5,mm,560,TA10
S0004,T05,LDIAM,47.9,mm,560,TA10
S0004,,SUMDIAM,212.1,mm,560,TA10
S0004,T01,LDIAM,35.8,mm,616,TA11
S0004,T02,LDIAM,42.6,mm,616,TA11
S0004,T03,LDIAM,33.3,mm,616,TA11
S0004,T04,LDIAM,52.5,mm,616,TA11
S0004,T05,LDIAM,47.9,mm,616,TA11
S0004,,SUMDIAM,212.1,mm,616,TA11
S0004,T01,LDIAM,35.8,mm,672,TA12
S0004,T02,LDIAM,42.6,mm,672,TA12
S0004,T03,LDIAM,33.3,mm,672,TA12
S0004,T04,LDIAM,52.5,mm,672,TA12
S0004,T05,LDIAM,47.9,mm,672,TA12
S0004,,SUMDIAM,212.1,mm,672,TA12
S0004,T01,LDIAM,35.8,mm,728,TA13
S0004,T02,LDIAM,42.6,mm,728,TA13
S0004,T03,LDIAM,33.3,mm,728,TA13
S0004,T04,LDIAM,52.5,mm,728,TA13
S0004,T05,LDIAM,47.9,mm,728,TA13
S0004,,SUMDIAM,212.1,mm,728,TA13
S0004,T01,LDIAM,35.8,mm,784,TA14
S0004,T02,LDIAM,42.6,mm,784,TA14
S0004,T03,LDIAM,33.3,mm,784,TA14
S0004,T04,LDIAM,52.5,mm,784,TA14
S0004,T05,LDIAM,47.9,mm,784,TA14
S0004,,SUMDIAM,212.1,mm,784,TA14
S0004,T01,LDIAM,35.8,mm,840,TA15
S0004,T02,LDIAM,42.6,mm,840,TA15
S0004,T03,LDIAM,33.3,mm,840,TA15
S0004,T04,LDIAM,52.5,mm,840,TA15
S0004,T05,LDIAM,47.9,mm,840,TA15
S0004,,SUMDIAM,212.1,mm,840,TA15
S0004,T01,LDIAM,35.8,mm,896,TA16
S0004,T02,LDIAM,42.6,mm,896,TA16
S0004,T03,LDIAM,33.3,mm,896,TA16
S0004,T04,LDIAM,52.5,mm,896,TA16
S0004,T05,LDIAM,47.9,mm,896,TA16
S0004,,SUMDIAM,212.1,mm,896,TA16
S0004,T01,LDIAM,35.8,mm,952,TA17
S0004,T02,LDIAM,42.6,mm,952,TA17
S0004,T03,LDIAM,33.3,mm,952,TA17
S0004,T04,LDIAM,52.5,mm,952,TA17
S0004,T05,LDIAM,47.9,mm,952,TA17
S0004,,SUMDIAM,212.1,mm,952,TA17
S0004,T01,LDIAM,35.8,mm,1008,TA18
S0004,T02,LDIAM,42.6,mm,1008,TA18
S0004,T03,LDIAM,33.3,mm,1008,TA18
S0004,T04,LDIAM,52.5,mm,1008,TA18
S0004,T05,LDIAM,47.9,mm,1008,TA18
S0004,,SUMDIAM,212.1,mm,1008,TA18
S0004,T01,LDIAM,35.8,mm,1064,TA19
S0004,T02,LDIAM,42.6,mm,1064,TA19
S0004,T03,LDIAM,33.3,mm,1064,TA19
S0004,T04,LDIAM,52.5,mm,1064,TA19
S0004,T05,LDIAM,47.9,mm,1064,TA19
S0004,,SUMDIAM,212.1,mm,1064,TA19
S0004,T01,LDIAM,35.8,mm,1120,TA20
S0004,T02,LDIAM,42.6,mm,1120,TA20
S0004,T03,LDIAM,33.3,mm,1120,TA20
S0004,T04,LDIAM,52.5,mm,1120,TA20
S0004,T05,LDIAM,47.9,mm,1120,TA20
S0004,,SUMDIAM,212.1,mm,1120,TA20
S0004,T01,LDIAM,35.8,mm,1176,TA21
S0004,T02,LDIAM,42.6,mm,1176,TA21
S0004,T03,LDIAM,33.3,mm,1176,TA21
S0004,T04,LDIAM,52.5,mm,1176,TA21
S0004,T05,LDIAM,47.9,mm,1176,TA21
S0004,,SUMDIAM,212.1,mm,1176,TA21
S0004,T01,LDIAM,35.8,mm,1232,TA22
S0004,T02,LDIAM,42.6,mm,1232,TA22
S0004,T03,LDIAM,33.3,mm,1232,TA22
S0004,T04,LDIAM,52.5,mm,1232,TA22
S0004,T05,LDIAM,47.9,mm,1232,TA22
S0004,,SUMDIAM,212.1,mm,1232,TA22
S0004,T01,LDIAM,35.8,mm,1288,TA23
S0004,T02,LDIAM,42.6,mm,1288,TA23
S0004,T03,LDIAM,33.3,mm,1288,TA23
S0004,T04,LDIAM,52.5,mm,1288,TA23
S0004,T05,LDIAM,47.9,mm,1288,TA23
S0004,,SUMDIAM,212.1,mm,1288,TA23
S0004,T01,LDIAM,35.8,mm,1344,TA24
S0004,T02,LDIAM,42.6,mm,1344,TA24
S0004,T03,LDIAM,33.3,mm,1344,TA24
S0004,T04,LDIAM,52.5,mm,1344,TA24
S0004,T05,LDIAM,47.9,mm,1344,TA24
S0004,,SUMDIAM,212.1,mm,1344,TA24
S0004,T01,LDIAM,35.8,mm,1400,TA25
S0004,T02,LDIAM,42.6,mm,1400,TA25
S0004,T03,LDIAM,33.3,mm,1400,TA25
S0004,T04,LDIAM,52.5,mm,1400,TA25
S0004,T05,LDIAM,47.9,mm,1400,TA25
S0004,,SUMDIAM,212.1,mm,1400,TA25
S0004,T01,LDIAM,35.8,mm,1456,TA26
S0004,T02,LDIAM,42.6,mm,1456,TA26
S0004,T03,LDIAM,33.3,mm,1456,TA26
S0004,T04,LDIAM,52.5,mm,1456,TA26
S0004,T05,LDIAM,47.9,mm,1456,TA26
S0004,,SUMDIAM,212.1,mm,1456,TA26
S0004,T01,LDIAM,35.8,mm,1512,TA27
S0004,T02,LDIAM,42.6,mm,1512,TA27
S0004,T03,LDIAM,33.3,mm,1512,TA27
S0004,T04,LDIAM,52.5,mm,1512,TA27
S0004,T05,LDIAM,47.9,mm,1512,TA27
S0004,,SUMDIAM,212.1,mm,1512,TA27
S0004,T01,LDIAM,35.8,mm,1568,TA28
S0004,T02,LDIAM,42.6,mm,1568,TA28
S0004,T03,LDIAM,33.3,mm,1568,TA28
S0004,T04,LDIAM,52.5,mm,1568,TA28
S0004,T05,LDIAM,47.9,mm,1568,TA28
S0004,,SUMDIAM,212.1,mm,1568,TA28
S0004,T01,LDIAM,35.8,mm,1624,TA29
S0004,T02,LDIAM,42.6,mm,1624,TA29
S0004,T03,LDIAM,33.3,mm,1624,TA29
S0004,T04,LDIAM,52.5,mm,1624,TA29
S0004,T05,LDIAM,47.9,mm,1624,TA29
S0004,,SUMDIAM,212.1,mm,1624,TA29
S0004,T01,LDIAM,35.8,mm,1680,TA30
S0004,T02,LDIAM,42.6,mm,1680,TA30
S0004,T03,LDIAM,33.3,mm,1680,TA30
S0004,T04,LDIAM,52.5,mm,1680,TA30
S0004,T05,LDIAM,47.9,mm,1680,TA30
S0004,,SUMDIAM,212.1,mm,1680,TA30
S0004,T01,LDIAM,35.8,mm,1736,TA31
S0004,T02,LDIAM,42.6,mm,1736,TA31
S0004,T03,LDIAM,33.3,mm,1736,TA31
S0004,T04,LDIAM,52.5,mm,1736,TA31
S0004,T05,LDIAM,47.9,mm,1736,TA31
S0004,,SUMDIAM,212.1,mm,1736,TA31
S0004,T01,LDIAM,35.8,mm,1792,TA32
S0004,T02,LDIAM,42.6,mm,1792,TA32
S0004,T03,LDIAM,33.3,mm,1792,TA32
S0004,T04,LDIAM,52.5,mm,1792,TA32
S0004,T05,LDIAM,47.9,mm,1792,TA32
S0004,,SUMDIAM,212.1,mm,1792,TA32
S0004,T01,LDIAM,35.8,mm,1848,TA33
S0004,T02,LDIAM,42.6,mm,1848,TA33
S0004,T03,LDIAM,33.3,mm,1848,TA33
S0004,T04,LDIAM,52.5,mm,1848,TA33
S0004,T05,LDIAM,47.9,mm,1848,TA33
S0004,,SUMDIAM,212.1,mm,1848,TA33
S0004,T01,LDIAM,35.8,mm,1904,TA34
S0004,T02,LDIAM,42.6,mm,1904,TA34
S0004,T03,LDIAM,33.3,mm,1904,TA34
S0004,T04,LDIAM,52.5,mm,1904,TA34
S0004,T05,LDIAM,47.9,mm,1904,TA34
S0004,,SUMDIAM,212.1,mm,1904,TA34
S0005,T01,LDIAM,26.0,mm,0,BASELINE
S0005,,SUMDIAM,26.0,mm,0,BASELINE
S0005,T01,LDIAM,17.4,mm,56,TA1
S0005,,SUMDIAM,17.4,mm,56,TA1
S0005,T01,LDIAM,8.8,mm,112,TA2
S0005,,SUMDIAM,8.8,mm,112,TA2
S0005,T01,LDIAM,8.8,mm,168,TA3
S0005,,SUMDIAM,8.8,mm,168,TA3
S0005,T01,LDIAM,8.8,mm,224,TA4
S0005,,SUMDIAM,8.8,mm,224,TA4
S0005,T01,LDIAM,8.8,mm,280,TA5
S0005,,SUMDIAM,8.8,mm,280,TA5
S0005,T01,LDIAM,8.8,mm,336,TA6
S0005,,SUMDIAM,8.8,mm,336,TA6
S0005,T01,LDIAM,8.8,mm,392,TA7
S0005,,SUMDIAM,8.8,mm,392,TA7
S0005,T01,LDIAM,8.8,mm,448,TA8
S0005,,SUMDIAM,8.8,mm,448,TA8
S0005,T01,LDIAM,8.8,mm,504,TA9
S0005,,SUMDIAM,8.8,mm,504,TA9
S0005,T01,LDIAM,8.8,mm,560,TA10
S0005,,SUMDIAM,8.8,mm,560,TA10
S0005,T01,LDIAM,8.8,mm,616,TA11
S0005,,SUMDIAM,8.8,mm,616,TA11
S0005,T01,LDIAM,8.8,mm,672,TA12
S0005,,SUMDIAM,8.8,mm,672,TA12
S0005,T01,LDIAM,8.8,mm,728,TA13
S0005,,SUMDIAM,8.8,mm,728,TA13
S0005,T01,LDIAM,8.8,mm,784,TA14
S0005,,SUMDIAM,8.8,mm,784,TA14
S0005,T01,LDIAM,8.8,mm,840,TA15
S0005,,SUMDIAM,8.8,mm,840,TA15
S0005,T01,LDIAM,8.8,mm,896,TA16
S0005,,SUMDIAM,8.8,mm,896,TA16
S0005,T01,LDIAM,8.8,mm,952,TA17
S0005,,SUMDIAM,8.8,mm,952,TA17
S0005,T01,LDIAM,8.8,mm,1008,TA18
S0005,,SUMDIAM,8.8,mm,1008,TA18
S0005,T01,LDIAM,8.8,mm,1064,TA19
S0005,,SUMDIAM,8.8,mm,1064,TA19
S0005,T01,LDIAM,8.8,mm,1120,TA20
S0005,,SUMDIAM,8.8,mm,1120,TA20
S0005,T01,LDIAM,8.8,mm,1176,TA21
S0005,,SUMDIAM,8.8,mm,1176,TA21
S0005,T01,LDIAM,8.8,mm,1232,TA22
S0005,,SUMDIAM,8.8,mm,1232,TA22
S0005,T01,LDIAM,8.8,mm,1288,TA23
S0005,,SUMDIAM,8.8,mm,1288,TA23
S0005,T01,LDIAM,8.8,mm,1344,TA24
S0005,,SUMDIAM,8.8,mm,1344,TA24
S0005,T01,LDIAM,8.8,mm,1400,TA25
S0005,,SUMDIAM,8.8,mm,1400,TA25
S0005,T01,LDIAM,8.8,mm,1456,TA26
S0005,,SUMDIAM,8.8,mm,1456,TA26
S0005,T01,LDIAM,8.8,mm,1512,TA27
S0005,,SUMDIAM,8.8,mm,1512,TA27
S0005,T01,LDIAM,8.8,mm,1568,TA28
S0005,,SUMDIAM,8.8,mm,1568,TA28
S0005,T01,LDIAM,8.8,mm,1624,TA29
S0005,,SUMDIAM,8.8,mm,1624,TA29
S0005,T01,LDIAM,8.8,mm,1680,TA30
S0005,,SUMDIAM,8.8,mm,1680,TA30
S0005,T01,LDIAM,8.8,mm,1736,TA31
S0005,,SUMDIAM,8.8,mm,1736,TA31
S0005,T01,LDIAM,8.8,mm,1792,TA32
S0005,,SUMDIAM,8.8,mm,1792,TA32
S0005,T01,LDIAM,8.8,mm,1848,TA33
S0005,,SUMDIAM,8.8,mm,1848,TA33
S0005,T01,LDIAM,8.8,mm,1904,TA34
S0005,,SUMDIAM,8.8,mm,1904,TA34
S0006,T01,LDIAM,27.9,mm,0,BASELINE
S0006,T02,LDIAM,52.3,mm,0,BASELINE
S0006,T03,LDIAM,30.6,mm,0,BASELINE
S0006,T04,LDIAM,56.8,mm,0,BASELINE
S0006,,SUMDIAM,167.6,mm,0,BASELINE
S0006,T01,LDIAM,17.5,mm,56,TA1
S0006,T02,LDIAM,32.9,mm,56,TA1
S0006,T03,LDIAM,19.2,mm,56,TA1
S0006,T04,LDIAM,35.7,mm,56,TA1
S0006,,SUMDIAM,105.4,mm,56,TA1
S0006,T01,LDIAM,7.2,mm,112,TA2
S0006,T02,LDIAM,13.5,mm,112,TA2
S0006,T03,LDIAM,7.9,mm,112,TA2
S0006,T04,LDIAM,14.6,mm,112,TA2
S0006,,SUMDIAM,43.1,mm,112,TA2
S0006,T01,LDIAM,7.2,mm,168,TA3
S0006,T02,LDIAM,13.5,mm,168,TA3
S0006,T03,LDIAM,7.9,mm,168,TA3
S0006,T04,LDIAM,14.6,mm,168,TA3
S0006,,SUMDIAM,43.1,mm,168,TA3
S0006,T01,LDIAM,7.2,mm,224,TA4
S0006,T02,LDIAM,13.5,mm,224,TA4
S0006,T03,LDIAM,7.9,mm,224,TA4
S0006,T04,LDIAM,14.6,mm,224,TA4
S0006,,SUMDIAM,43.1,mm,224,TA4
S0006,T01,LDIAM,7.2,mm,280,TA5
S0006,T02,LDIAM,13.5,mm,280,TA5
S0006,T03,LDIAM,7.9,mm,280,TA5
S0006,T04,LDIAM,14.6,mm,280,TA5
S0006,,SUMDIAM,43.1,mm,280,TA5
S0006,T01,LDIAM,7.2,mm,336,TA6
S0006,T02,LDIAM,13.5,mm,336,TA6
S0006,T03,LDIAM,7.9,mm,336,TA6
S0006,T04,LDIAM,14.6,mm,336,TA6
S0006,,SUMDIAM,43.1,mm,336,TA6
S0006,T01,LDIAM,7.2,mm,392,TA7
S0006,T02,LDIAM,13.5,mm,392,TA7
S0006,T03,LDIAM,7.9,mm,392,TA7
S0006,T04,LDIAM,14.6,mm,392,TA7
S0006,,SUMDIAM,43.1,mm,392,TA7
S0006,T01,LDIAM,7.2,mm,448,TA8
S0006,T02,LDIAM,13.5,mm,448,TA8
S0006,T03,LDIAM,7.9,mm,448,TA8
S0006,T04,LDIAM,14.6,mm,448,TA8
S0006,,SUMDIAM,43.1,mm,448,TA8
S0006,T01,LDIAM,7.2,mm,504,TA9
S0006,T02,LDIAM,13.5,mm,504,TA9
S0006,T03,LDIAM,7.9,mm,504,TA9
S0006,T04,LDIAM,14.6,mm,504,TA9
S0006,,SUMDIAM,43.1,mm,504,TA9
S0006,T01,LDIAM,7.2,mm,560,TA10
S0006,T02,LDIAM,13.5,mm,560,TA10
S0006,T03,LDIAM,7.9,mm,560,TA10
S0006,T04,LDIAM,14.6,mm,560,TA10
S0006,,SUMDIAM,43.1,mm,560,TA10
S0006,T01,LDIAM,7.2,mm,616,TA11
S0006,T02,LDIAM,13.5,mm,616,TA11
S0006,T03,LDIAM,7.9,mm,616,TA11
S0006,T04,LDIAM,14.6,mm,616,TA11
S0006,,SUMDIAM,43.1,mm,616,TA11
S0006,T01,LDIAM,7.2,mm,672,TA12
S0006,T02,LDIAM,13.5,mm,672,TA12
S0006,T03,LDIAM,7.9,mm,672,TA12
S0006,T04,LDIAM,14.6,mm,672,TA12
S0006,,SUMDIAM,43.1,mm,672,TA12
S0006,T01,LDIAM,7.2,mm,728,TA13
S0006,T02,LDIAM,13.5,mm,728,TA13
S0006,T03,LDIAM,7.9,mm,728,TA13
S0006,T04,LDIAM,14.6,mm,728,TA13
S0006,,SUMDIAM,43.1,mm,728,TA13
S0006,T01,LDIAM,7.2,mm,784,TA14
S0006,T02,LDIAM,13.5,mm,784,TA14
S0006,T03,LDIAM,7.9,mm,784,TA14
S0006,T04,LDIAM,14.6,mm,784,TA14
S0006,,SUMDIAM,43.1,mm,784,TA14
S0006,T01,LDIAM,7.2,mm,840,TA15
S0006,T02,LDIAM,13.5,mm,840,TA15
S0006,T03,LDIAM,7.9,mm,840,TA15
S0006,T04,LDIAM,14.6,mm,840,TA15
S0006,,SUMDIAM,43.1,mm,840,TA15
S0006,T01,LDIAM,7.2,mm,896,TA16
S0006,T02,LDIAM,13.5,mm,896,TA16
S0006,T03,LDIAM,7.9,mm,896,TA16
S0006,T04,LDIAM,14.6,mm,896,TA16
S0006,,SUMDIAM,43.1,mm,896,TA16
S0006,T01,LDIAM,11.4,mm,952,TA17
S0006,T02,LDIAM,21.4,mm,952,TA17
S0006,T03,LDIAM,12.5,mm,952,TA17
S0006,T04,LDIAM,23.3,mm,952,TA17
S0006,,SUMDIAM,68.7,mm,952,TA17
S0008,T01,LDIAM,49.8,mm,0,BASELINE
S0008,T02,LDIAM,41.0,mm,0,BASELINE
S0008,T03,LDIAM,54.7,mm,0,BASELINE
S0008,,SUMDIAM,145.5,mm,0,BASELINE
S0008,T01,LDIAM,45.3,mm,56,TA1
S0008,T02,LDIAM,37.3,mm,56,TA1
S0008,T03,LDIAM,49.8,mm,56,TA1
S0008,,SUMDIAM,132.5,mm,56,TA1
S0008,T01,LDIAM,66.0,mm,112,TA2
S0008,T02,LDIAM,54.3,mm,112,TA2
S0008,T03,LDIAM,72.5,mm,112,TA2
S0008,,SUMDIAM,192.8,mm,112,TA2
S0012,T01,LDIAM,43.5,mm,0,BASELINE
S0012,T02,LDIAM,32.4,mm,0,BASELINE
S0012,T03,LDIAM,22.2,mm,0,BASELINE
S0012,T04,LDIAM,52.6,mm,0,BASELINE
S0012,T05,LDIAM,12.6,mm,0,BASELINE
S0012,,SUMDIAM,163.3,mm,0,BASELINE
S0012,T01,LDIAM,33.6,mm,56,TA1
S0012,T02,LDIAM,25.1,mm,56,TA1
S0012,T03,LDIAM,17.2,mm,56,TA1
S0012,T04,LDIAM,40.7,mm,56,TA1
S0012,T05,LDIAM,9.7,mm,56,TA1
S0012,,SUMDIAM,126.3,mm,56,TA1
S0012,T01,LDIAM,23.8,mm,112,TA2
S0012,T02,LDIAM,17.7,mm,112,TA2
S0012,T03,LDIAM,12.1,mm,112,TA2
S0012,T04,LDIAM,28.8,mm,112,TA2
S0012,T05,LDIAM,6.9,mm,112,TA2
S0012,,SUMDIAM,89.3,mm,112,TA2
S0016,T01,LDIAM,17.1,mm,0,BASELINE
S0016,T02,LDIAM,49.6,mm,0,BASELINE
S0016,T03,LDIAM,11.7,mm,0,BASELINE
S0016,T04,LDIAM,50.5,mm,0,BASELINE
S0016,,SUMDIAM,128.9,mm,0,BASELINE
S0016,T01,LDIAM,11.0,mm,56,TA1
S0016,T02,LDIAM,31.8,mm,56,TA1
S0016,T03,LDIAM,7.5,mm,56,TA1
S0016,T04,LDIAM,32.4,mm,56,TA1
S0016,,SUMDIAM,82.7,mm,56,TA1
S0016,T01,LDIAM,4.8,mm,112,TA2
S0016,T02,LDIAM,14.0,mm,112,TA2
S0016,T03,LDIAM,3.3,mm,112,TA2
S0016,T04,LDIAM,14.3,mm,112,TA2
S0016,,SUMDIAM,36.5,mm,112,TA2
S0016,T01,LDIAM,4.8,mm,168,TA3
S0016,T02,LDIAM,14.0,mm,168,TA3
S0016,T03,LDIAM,3.3,mm,168,TA3
S0016,T04,LDIAM,14.3,mm,168,TA3
S0016,,SUMDIAM,36.5,mm,168,TA3
S0016,T01,LDIAM,4.8,mm,224,TA4
S0016,T02,LDIAM,14.0,mm,224,TA4
S0016,T03,LDIAM,3.3,mm,224,TA4
S0016,T04,LDIAM,14.3,mm,224,TA4
S0016,,SUMDIAM,36.5,mm,224,TA4
S0016,T01,LDIAM,4.8,mm,280,TA5
S0016,T02,LDIAM,14.0,mm,280,TA5
S0016,T03,LDIAM,3.3,mm,280,TA5
S0016,T04,LDIAM,14.3,mm,280,TA5
S0016,,SUMDIAM,36.5,mm,280,TA5
S0016,T01,LDIAM,4.8,mm,336,TA6
S0016,T02,LDIAM,14.0,mm,336,TA6
S0016,T03,LDIAM,3.3,mm,336,TA6
S0016,T04,LDIAM,14.3,mm,336,TA6
S0016,,SUMDIAM,36.5,mm,336,TA6
S0016,T01,LDIAM,4.8,mm,392,TA7
S0016,T02,LDIAM,14.0,mm,392,TA7
S0016,T03,LDIAM,3.3,mm,392,TA7
S0016,T04,LDIAM,14.3,mm,392,TA7
S0016,,SUMDIAM,36.5,mm,392,TA7
S0016,T01,LDIAM,4.8,mm,448,TA8
S0016,T02,LDIAM,14.0,mm,448,TA8
S0016,T03,LDIAM,3.3,mm,448,TA8
S0016,T04,LDIAM,14.3,mm,448,TA8
S0016,,SUMDIAM,36.5,mm,448,TA8
S0016,T01,LDIAM,4.8,mm,504,TA9
S0016,T02,LDIAM,14.0,mm,504,TA9
S0016,T03,LDIAM,3.3,mm,504,TA9
S0016,T04,LDIAM,14.3,mm,504,TA9
S0016,,SUMDIAM,36.5,mm,504,TA9
S0016,T01,LDIAM,4.8,mm,560,TA10
S0016,T02,LDIAM,14.0,mm,560,TA10
S0016,T03,LDIAM,3.3,mm,560,TA10
S0016,T04,LDIAM,14.3,mm,560,TA10
S0016,,SUMDIAM,36.5,mm,560,TA10
S0016,T01,LDIAM,4.8,mm,616,TA11
S0016,T02,LDIAM,14.0,mm,616,TA11
S0016,T03,LDIAM,3.3,mm,616,TA11
S0016,T04,LDIAM,14.3,mm,616,TA11
S0016,,SUMDIAM,36.5,mm,616,TA11
S0016,T01,LDIAM,4.8,mm,672,TA12
S0016,T02,LDIAM,14.0,mm,672,TA12
S0016,T03,LDIAM,3.3,mm,672,TA12
S0016,T04,LDIAM,14.3,mm,672,TA12
S0016,,SUMDIAM,36.5,mm,672,TA12
S0016,T01,LDIAM,4.8,mm,728,TA13
S0016,T02,LDIAM,14.0,mm,728,TA13
S0016,T03,LDIAM,3.3,mm,728,TA13
S0016,T04,LDIAM,14.3,mm,728,TA13
S0016,,SUMDIAM,36.5,mm,728,TA13
S0016,T01,LDIAM,4.8,mm,784,TA14
S0016,T02,LDIAM,14.0,mm,784,TA14
S0016,T03,LDIAM,3.3,mm,784,TA14
S0016,T04,LDIAM,14.3,mm,784,TA14
S0016,,SUMDIAM,36.5,mm,784,TA14
S0016,T01,LDIAM,4.8,mm,840,TA15
S0016,T02,LDIAM,14.0,mm,840,TA15
S0016,T03,LDIAM,3.3,mm,840,TA15
S0016,T04,LDIAM,14.3,mm,840,TA15
S0016,,SUMDIAM,36.5,mm,840,TA15
S0016,T01,LDIAM,4.8,mm,896,TA16
S0016,T02,LDIAM,14.0,mm,896,TA16
S0016,T03,LDIAM,3.3,mm,896,TA16
S0016,T04,LDIAM,14.3,mm,896,TA16
S0016,,SUMDIAM,36.5,mm,896,TA16
S0016,T01,LDIAM,4.8,mm,952,TA17
S0016,T02,LDIAM,14.0,mm,952,TA17
S0016,T03,LDIAM,3.3,mm,952,TA17
S0016,T04,LDIAM,14.3,mm,952,TA17
S0016,,SUMDIAM,36.5,mm,952,TA17
S0016,T01,LDIAM,4.8,mm,1008,TA18
S0016,T02,LDIAM,14.0,mm,1008,TA18
S0016,T03,LDIAM,3.3,mm,1008,TA18
S0016,T04,LDIAM,14.3,mm,1008,TA18
S0016,,SUMDIAM,36.5,mm,1008,TA18
S0016,T01,LDIAM,4.8,mm,1064,TA19
S0016,T02,LDIAM,14.0,mm,1064,TA19
S0016,T03,LDIAM,3.3,mm,1064,TA19
S0016,T04,LDIAM,14.3,mm,1064,TA19
S0016,,SUMDIAM,36.5,mm,1064,TA19
S0016,T01,LDIAM,4.8,mm,1120,TA20
S0016,T02,LDIAM,14.0,mm,1120,TA20
S0016,T03,LDIAM,3.3,mm,1120,TA20
S0016,T04,LDIAM,14.3,mm,1120,TA20
S0016,,SUMDIAM,36.5,mm,1120,TA20
S0016,T01,LDIAM,4.8,mm,1176,TA21
S0016,T02,LDIAM,14.0,mm,1176,TA21
S0016,T03,LDIAM,3.3,mm,1176,TA21
S0016,T04,LDIAM,14.3,mm,1176,TA21
S0016,,SUMDIAM,36.5,mm,1176,TA21
S0016,T01,LDIAM,4.8,mm,1232,TA22
S0016,T02,LDIAM,14.0,mm,1232,TA22
S0016,T03,LDIAM,3.3,mm,1232,TA22
S0016,T04,LDIAM,14.3,mm,1232,TA22
S0016,,SUMDIAM,36.5,mm,1232,TA22
S0016,T01,LDIAM,4.8,mm,1288,TA23
S0016,T02,LDIAM,14.0,mm,1288,TA23
S0016,T03,LDIAM,3.3,mm,1288,TA23
S0016,T04,LDIAM,14.3,mm,1288,TA23
S0016,,SUMDIAM,36.5,mm,1288,TA23
S0016,T01,LDIAM,4.8,mm,1344,TA24
S0016,T02,LDIAM,14.0,mm,1344,TA24
S0016,T03,LDIAM,3.3,mm,1344,TA24
S0016,T04,LDIAM,14.3,mm,1344,TA24
S0016,,SUMDIAM,36.5,mm,1344,TA24
S0016,T01,LDIAM,4.8,mm,1400,TA25
S0016,T02,LDIAM,14.0,mm,1400,TA25
S0016,T03,LDIAM,3.3,mm,1400,TA25
S0016,T04,LDIAM,14.3,mm,1400,TA25
S0016,,SUMDIAM,36.5,mm,1400,TA25
S0016,T01,LDIAM,4.8,mm,1456,TA26
S0016,T02,LDIAM,14.0,mm,1456,TA26
S0016,T03,LDIAM,3.3,mm,1456,TA26
S0016,T04,LDIAM,14.3,mm,1456,TA26
S0016,,SUMDIAM,36.5,mm,1456,TA26
S0016,T01,LDIAM,4.8,mm,1512,TA27
S0016,T02,LDIAM,14.0,mm,1512,TA27
S0016,T03,LDIAM,3.3,mm,1512,TA27
S0016,T04,LDIAM,14.3,mm,1512,TA27
S0016,,SUMDIAM,36.5,mm,1512,TA27
S0016,T01,LDIAM,4.8,mm,1568,TA28
S0016,T02,LDIAM,14.0,mm,1568,TA28
S0016,T03,LDIAM,3.3,mm,1568,TA28
S0016,T04,LDIAM,14.3,mm,1568,TA28
S0016,,SUMDIAM,36.5,mm,1568,TA28
S0016,T01,LDIAM,4.8,mm,1624,TA29
S0016,T02,LDIAM,14.0,mm,1624,TA29
S0016,T03,LDIAM,3.3,mm,1624,TA29
S0016,T04,LDIAM,14.3,mm,1624,TA29
S0016,,SUMDIAM,36.5,mm,1624,TA29
S0016,T01,LDIAM,4.8,mm,1680,TA30
S0016,T02,LDIAM,14.0,mm,1680,TA30
S0016,T03,LDIAM,3.3,mm,1680,TA30
S0016,T04,LDIAM,14.3,mm,1680,TA30
S0016,,SUMDIAM,36.5,mm,1680,TA30
S0016,T01,LDIAM,4.8,mm,1736,TA31
S0016,T02,LDIAM,14.0,mm,1736,TA31
S0016,T03,LDIAM,3.3,mm,1736,TA31
S0016,T04,LDIAM,14.3,mm,1736,TA31
S0016,,SUMDIAM,36.5,mm,1736,TA31
S0016,T01,LDIAM,4.8,mm,1792,TA32
S0016,T02,LDIAM,14.0,mm,1792,TA32
S0016,T03,LDIAM,3.3,mm,1792,TA32
S0016,T04,LDIAM,14.3,mm,1792,TA32
S0016,,SUMDIAM,36.5,mm,1792,TA32
S0016,T01,LDIAM,4.8,mm,1848,TA33
S0016,T02,LDIAM,14.0,mm,1848,TA33
S0016,T03,LDIAM,3.3,mm,1848,TA33
S0016,T04,LDIAM,14.3,mm,1848,TA33
S0016,,SUMDIAM,36.5,mm,1848,TA33
S0017,T01,LDIAM,11.4,mm,0,BASELINE
S0017,T02,LDIAM,23.8,mm,0,BASELINE
S0017,,SUMDIAM,35.2,mm,0,BASELINE
S0017,T01,LDIAM,8.4,mm,56,TA1
S0017,T02,LDIAM,17.6,mm,56,TA1
S0017,,SUMDIAM,26.0,mm,56,TA1
S0017,T01,LDIAM,5.5,mm,112,TA2
S0017,T02,LDIAM,11.4,mm,112,TA2
S0017,,SUMDIAM,16.9,mm,112,TA2
S0019,T01,LDIAM,32.3,mm,0,BASELINE
S0019,,SUMDIAM,32.3,mm,0,BASELINE
S0019,T01,LDIAM,18.6,mm,56,TA1
S0019,,SUMDIAM,18.6,mm,56,TA1
S0026,T01,LDIAM,13.3,mm,0,BASELINE
S0026,T02,LDIAM,34.5,mm,0,BASELINE
S0026,T03,LDIAM,10.9,mm,0,BASELINE
S0026,,SUMDIAM,58.7,mm,0,BASELINE
S0026,T01,LDIAM,9.9,mm,56,TA1
S0026,T02,LDIAM,25.8,mm,56,TA1
S0026,T03,LDIAM,8.2,mm,56,TA1
S0026,,SUMDIAM,43.9,mm,56,TA1
S0026,T01,LDIAM,14.6,mm,112,TA2
S0026,T02,LDIAM,37.8,mm,112,TA2
S0026,T03,LDIAM,12.0,mm,112,TA2
S0026,,SUMDIAM,64.4,mm,112,TA2
S0029,T01,LDIAM,13.0,mm,0,BASELINE
S0029,T02,LDIAM,46.8,mm,0,BASELINE
S0029,T03,LDIAM,40.3,mm,0,BASELINE
S0029,T04,LDIAM,38.3,mm,0,BASELINE
S0029,,SUMDIAM,138.4,mm,0,BASELINE
S0029,T01,LDIAM,14.0,mm,56,TA1
S0029,T02,LDIAM,50.5,mm,56,TA1
S0029,T03,LDIAM,43.4,mm,56,TA1
S0029,T04,LDIAM,41.3,mm,56,TA1
S0029,,SUMDIAM,149.2,mm,56,TA1
S0029,T01,LDIAM,15.0,mm,112,TA2
S0029,T02,LDIAM,54.1,mm,112,TA2
S0029,T03,LDIAM,46.6,mm,112,TA2
S0029,T04,LDIAM,44.3,mm,112,TA2
S0029,,SUMDIAM,160.0,mm,112,TA2
S0029,T01,LDIAM,15.0,mm,168,TA3
S0029,T02,LDIAM,54.1,mm,168,TA3
S0029,T03,LDIAM,46.6,mm,168,TA3
S0029,T04,LDIAM,44.3,mm,168,TA3
S0029,,SUMDIAM,160.0,mm,168,TA3
S0029,T01,LDIAM,15.0,mm,224,TA4
S0029,T02,LDIAM,54.1,mm,224,TA4
S0029,T03,LDIAM,46.6,mm,224,TA4
S0029,T04,LDIAM,44.3,mm,224,TA4
S0029,,SUMDIAM,160.0,mm,224,TA4
S0029,T01,LDIAM,15.0,mm,280,TA5
S0029,T02,LDIAM,54.1,mm,280,TA5
S0029,T03,LDIAM,46.6,mm,280,TA5
S0029,T04,LDIAM,44.3,mm,280,TA5
S0029,,SUMDIAM,160.0,mm,280,TA5
S0029,T01,LDIAM,15.0,mm,336,TA6
S0029,T02,LDIAM,54.1,mm,336,TA6
S0029,T03,LDIAM,46.6,mm,336,TA6
S0029,T04,LDIAM,44.3,mm,336,TA6
S0029,,SUMDIAM,160.0,mm,336,TA6
S0029,T01,LDIAM,15.0,mm,392,TA7
S0029,T02,LDIAM,54.1,mm,392,TA7
S0029,T03,LDIAM,46.6,mm,392,TA7
S0029,T04,LDIAM,44.3,mm,392,TA7
S0029,,SUMDIAM,160.0,mm,392,TA7
S0029,T01,LDIAM,15.0,mm,448,TA8
S0029,T02,LDIAM,54.1,mm,448,TA8
S0029,T03,LDIAM,46.6,mm,448,TA8
S0029,T04,LDIAM,44.3,mm,448,TA8
S0029,,SUMDIAM,160.0,mm,448,TA8
S0029,T01,LDIAM,15.0,mm,504,TA9
S0029,T02,LDIAM,54.1,mm,504,TA9
S0029,T03,LDIAM,46.6,mm,504,TA9
S0029,T04,LDIAM,44.3,mm,504,TA9
S0029,,SUMDIAM,160.0,mm,504,TA9
S0029,T01,LDIAM,15.0,mm,560,TA10
S0029,T02,LDIAM,54.1,mm,560,TA10
S0029,T03,LDIAM,46.6,mm,560,TA10
S0029,T04,LDIAM,44.3,mm,560,TA10
S0029,,SUMDIAM,160.0,mm,560,TA10
S0029,T01,LDIAM,15.0,mm,616,TA11
S0029,T02,LDIAM,54.1,mm,616,TA11
S0029,T03,LDIAM,46.6,mm,616,TA11
S0029,T04,LDIAM,44.3,mm,616,TA11
S0029,,SUMDIAM,160.0,mm,616,TA11
S0029,T01,LDIAM,15.0,mm,672,TA12
S0029,T02,LDIAM,54.1,mm,672,TA12
S0029,T03,LDIAM,46.6,mm,672,TA12
S0029,T04,LDIAM,44.3,mm,672,TA12
S0029,,SUMDIAM,160.0,mm,672,TA12
S0029,T01,LDIAM,15.0,mm,728,TA13
S0029,T02,LDIAM,54.1,mm,728,TA13
S0029,T03,LDIAM,46.6,mm,728,TA13
S0029,T04,LDIAM,44.3,mm,728,TA13
S0029,,SUMDIAM,160.0,mm,728,TA13
S0029,T01,LDIAM,15.0,mm,784,TA14
S0029,T02,LDIAM,54.1,mm,784,TA14
S0029,T03,LDIAM,46.6,mm,784,TA14
S0029,T04,LDIAM,44.3,mm,784,TA14
S0029,,SUMDIAM,160.0,mm,784,TA14
S0029,T01,LDIAM,15.0,mm,840,TA15
S0029,T02,LDIAM,54.1,mm,840,TA15
S0029,T03,LDIAM,46.6,mm,840,TA15
S0029,T04,LDIAM,44.3,mm,840,TA15
S0029,,SUMDIAM,160.0,mm,840,TA15
S0032,T01,LDIAM,50.6,mm,0,BASELINE
S0032,T02,LDIAM,48.9,mm,0,BASELINE
S0032,T03,LDIAM,34.2,mm,0,BASELINE
S0032,,SUMDIAM,133.7,mm,0,BASELINE
S0032,T01,LDIAM,57.5,mm,56,TA1
S0032,T02,LDIAM,55.5,mm,56,TA1
S0032,T03,LDIAM,38.8,mm,56,TA1
S0032,,SUMDIAM,151.8,mm,56,TA1
S0032,T01,LDIAM,64.3,mm,112,TA2
S0032,T02,LDIAM,62.2,mm,112,TA2
S0032,T03,LDIAM,43.5,mm,112,TA2
S0032,,SUMDIAM,170.0,mm,112,TA2
S0032,T01,LDIAM,64.3,mm,168,TA3
S0032,T02,LDIAM,62.2,mm,168,TA3
S0032,T03,LDIAM,43.5,mm,168,TA3
S0032,,SUMDIAM,170.0,mm,168,TA3
S0032,T01,LDIAM,64.3,mm,224,TA4
S0032,T02,LDIAM,62.2,mm,224,TA4
S0032,T03,LDIAM,43.5,mm,224,TA4
S0032,,SUMDIAM,170.0,mm,224,TA4
S0032,T01,LDIAM,64.3,mm,280,TA5
S0032,T02,LDIAM,62.2,mm,280,TA5
S0032,T03,LDIAM,43.5,mm,280,TA5
S0032,,SUMDIAM,170.0,mm,280,TA5
S0032,T01,LDIAM,64.3,mm,336,TA6
S0032,T02,LDIAM,62.2,mm,336,TA6
S0032,T03,LDIAM,43.5,mm,336,TA6
S0032,,SUMDIAM,170.0,mm,336,TA6
S0032,T01,LDIAM,64.3,mm,392,TA7
S0032,T02,LDIAM,62.2,mm,392,TA7
S0032,T03,LDIAM,43.5,mm,392,TA7
S0032,,SUMDIAM,170.0,mm,392,TA7
S0032,T01,LDIAM,64.3,mm,448,TA8
S0032,T02,LDIAM,62.2,mm,448,TA8
S0032,T03,LDIAM,43.5,mm,448,TA8
S0032,,SUMDIAM,170.0,mm,448,TA8
S0032,T01,LDIAM,64.3,mm,504,TA9
S0032,T02,LDIAM,62.2,mm,504,TA9
S0032,T03,LDIAM,43.5,mm,504,TA9
S0032,,SUMDIAM,170.0,mm,504,TA9
S0032,T01,LDIAM,64.3,mm,560,TA10
S0032,T02,LDIAM,62.2,mm,560,TA10
S0032,T03,LDIAM,43.5,mm,560,TA10
S0032,,SUMDIAM,170.0,mm,560,TA10
S0032,T01,LDIAM,64.3,mm,616,TA11
S0032,T02,LDIAM,62.2,mm,616,TA11
S0032,T03,LDIAM,43.5,mm,616,TA11
S0032,,SUMDIAM,170.0,mm,616,TA11
S0032,T01,LDIAM,64.3,mm,672,TA12
S0032,T02,LDIAM,62.2,mm,672,TA12
S0032,T03,LDIAM,43.5,mm,672,TA12
S0032,,SUMDIAM,170.0,mm,672,TA12
S0032,T01,LDIAM,64.3,mm,728,TA13
S0032,T02,LDIAM,62.2,mm,728,TA13
S0032,T03,LDIAM,43.5,mm,728,TA13
S0032,,SUMDIAM,170.0,mm,728,TA13
S0032,T01,LDIAM,64.3,mm,784,TA14
S0032,T02,LDIAM,62.2,mm,784,TA14
S0032,T03,LDIAM,43.5,mm,784,TA14
S0032,,SUMDIAM,170.0,mm,784,TA14
S0032,T01,LDIAM,64.3,mm,840,TA15
S0032,T02,LDIAM,62.2,mm,840,TA15
S0032,T03,LDIAM,43.5,mm,840,TA15
S0032,,SUMDIAM,170.0,mm,840,TA15
S0032,T01,LDIAM,64.3,mm,896,TA16
S0032,T02,LDIAM,62.2,mm,896,TA16
S0032,T03,LDIAM,43.5,mm,896,TA16
S0032,,SUMDIAM,170.0,mm,896,TA16
S0032,T01,LDIAM,64.3,mm,952,TA17
S0032,T02,LDIAM,62.2,mm,952,TA17
S0032,T03,LDIAM,43.5,mm,952,TA17
S0032,,SUMDIAM,170.0,mm,952,TA17
S0032,T01,LDIAM,64.3,mm,1008,TA18
S0032,T02,LDIAM,62.2,mm,1008,TA18
S0032,T03,LDIAM,43.5,mm,1008,TA18
S0032,,SUMDIAM,170.0,mm,1008,TA18
S0032,T01,LDIAM,64.3,mm,1064,TA19
S0032,T02,LDIAM,62.2,mm,1064,TA19
S0032,T03,LDIAM,43.5,mm,1064,TA19
S0032,,SUMDIAM,170.0,mm,1064,TA19
S0032,T01,LDIAM,64.3,mm,1120,TA20
S0032,T02,LDIAM,62.2,mm,1120,TA20
S0032,T03,LDIAM,43.5,mm,1120,TA20
S0032,,SUMDIAM,170.0,mm,1120,TA20
S0032,T01,LDIAM,64.3,mm,1176,TA21
S0032,T02,LDIAM,62.2,mm,1176,TA21
S0032,T03,LDIAM,43.5,mm,1176,TA21
S0032,,SUMDIAM,170.0,mm,1176,TA21
S0032,T01,LDIAM,64.3,mm,1232,TA22
S0032,T02,LDIAM,62.2,mm,1232,TA22
S0032,T03,LDIAM,43.5,mm,1232,TA22
S0032,,SUMDIAM,170.0,mm,1232,TA22
S0032,T01,LDIAM,64.3,mm,1288,TA23
S0032,T02,LDIAM,62.2,mm,1288,TA23
S0032,T03,LDIAM,43.5,mm,1288,TA23
S0032,,SUMDIAM,170.0,mm,1288,TA23
S0032,T01,LDIAM,64.3,mm,1344,TA24
S0032,T02,LDIAM,62.2,mm,1344,TA24
S0032,T03,LDIAM,43.5,mm,1344,TA24
S0032,,SUMDIAM,170.0,mm,1344,TA24
S0032,T01,LDIAM,64.3,mm,1400,TA25
S0032,T02,LDIAM,62.2,mm,1400,TA25
S0032,T03,LDIAM,43.5,mm,1400,TA25
S0032,,SUMDIAM,170.0,mm,1400,TA25
S0032,T01,LDIAM,64.3,mm,1456,TA26
S0032,T02,LDIAM,62.2,mm,1456,TA26
S0032,T03,LDIAM,43.5,mm,1456,TA26
S0032,,SUMDIAM,170.0,mm,1456,TA26
S0032,T01,LDIAM,64.3,mm,1512,TA27
S0032,T02,LDIAM,62.2,mm,1512,TA27
S0032,T03,LDIAM,43.5,mm,1512,TA27
S0032,,SUMDIAM,170.0,mm,1512,TA27
S0032,T01,LDIAM,64.3,mm,1568,TA28
S0032,T02,LDIAM,62.2,mm,1568,TA28
S0032,T03,LDIAM,43.5,mm,1568,TA28
S0032,,SUMDIAM,170.0,mm,1568,TA28
S0032,T01,LDIAM,64.3,mm,1624,TA29
S0032,T02,LDIAM,62.2,mm,1624,TA29
S0032,T03,LDIAM,43.5,mm,1624,TA29
S0032,,SUMDIAM,170.0,mm,1624,TA29
S0032,T01,LDIAM,64.3,mm,1680,TA30
S0032,T02,LDIAM,62.2,mm,1680,TA30
S0032,T03,LDIAM,43.5,mm,1680,TA30
S0032,,SUMDIAM,170.0,mm,1680,TA30
S0032,T01,LDIAM,64.3,mm,1736,TA31
S0032,T02,LDIAM,62.2,mm,1736,TA31
S0032,T03,LDIAM,43.5,mm,1736,TA31
S0032,,SUMDIAM,170.0,mm,1736,TA31
S0032,T01,LDIAM,64.3,mm,1792,TA32
S0032,T02,LDIAM,62.2,mm,1792,TA32
S0032,T03,LDIAM,43.5,mm,1792,TA32
S0032,,SUMDIAM,170.0,mm,1792,TA32
S0033,T01,LDIAM,28.3,mm,0,BASELINE
S0033,T02,LDIAM,14.7,mm,0,BASELINE
S0033,,SUMDIAM,43.0,mm,0,BASELINE
S0033,T01,LDIAM,14.5,mm,56,TA1
S0033,T02,LDIAM,7.6,mm,56,TA1
S0033,,SUMDIAM,22.1,mm,56,TA1
S0033,T01,LDIAM,0.8,mm,112,TA2
S0033,T02,LDIAM,0.4,mm,112,TA2
S0033,,SUMDIAM,1.2,mm,112,TA2
S0033,T01,LDIAM,0.8,mm,168,TA3
S0033,T02,LDIAM,0.4,mm,168,TA3
S0033,,SUMDIAM,1.2,mm,168,TA3
S0033,T01,LDIAM,0.8,mm,224,TA4
S0033,T02,LDIAM,0.4,mm,224,TA4
S0033,,SUMDIAM,1.2,mm,224,TA4
S0033,T01,LDIAM,0.8,mm,280,TA5
S0033,T02,LDIAM,0.4,mm,280,TA5
S0033,,SUMDIAM,1.2,mm,280,TA5
S0033,T01,LDIAM,0.8,mm,336,TA6
S0033,T02,LDIAM,0.4,mm,336,TA6
S0033,,SUMDIAM,1.2,mm,336,TA6
S0033,T01,LDIAM,0.8,mm,392,TA7
S0033,T02,LDIAM,0.4,mm,392,TA7
S0033,,SUMDIAM,1.2,mm,392,TA7
S0033,T01,LDIAM,0.8,mm,448,TA8
S0033,T02,LDIAM,0.4,mm,448,TA8
S0033,,SUMDIAM,1.2,mm,448,TA8
S0033,T01,LDIAM,0.8,mm,504,TA9
S0033,T02,LDIAM,0.4,mm,504,TA9
S0033,,SUMDIAM,1.2,mm,504,TA9
S0033,T01,LDIAM,0.8,mm,560,TA10
S0033,T02,LDIAM,0.4,mm,560,TA10
S0033,,SUMDIAM,1.2,mm,560,TA10
S0033,T01,LDIAM,0.8,mm,616,TA11
S0033,T02,LDIAM,0.4,mm,616,TA11
S0033,,SUMDIAM,1.2,mm,616,TA11
S0033,T01,LDIAM,0.8,mm,672,TA12
S0033,T02,LDIAM,0.4,mm,672,TA12
S0033,,SUMDIAM,1.2,mm,672,TA12
S0033,T01,LDIAM,0.8,mm,728,TA13
S0033,T02,LDIAM,0.4,mm,728,TA13
S0033,,SUMDIAM,1.2,mm,728,TA13
S0033,T01,LDIAM,0.8,mm,784,TA14
S0033,T02,LDIAM,0.4,mm,784,TA14
S0033,,SUMDIAM,1.2,mm,784,TA14
S0033,T01,LDIAM,0.8,mm,840,TA15
S0033,T02,LDIAM,0.4,mm,840,TA15
S0033,,SUMDIAM,1.2,mm,840,TA15
S0033,T01,LDIAM,0.8,mm,896,TA16
S0033,T02,LDIAM,0.4,mm,896,TA16
S0033,,SUMDIAM,1.2,mm,896,TA16
S0033,T01,LDIAM,0.8,mm,952,TA17
S0033,T02,LDIAM,0.4,mm,952,TA17
S0033,,SUMDIAM,1.2,mm,952,TA17
S0033,T01,LDIAM,0.8,mm,1008,TA18
S0033,T02,LDIAM,0.4,mm,1008,TA18
S0033,,SUMDIAM,1.2,mm,1008,TA18
S0033,T01,LDIAM,0.8,mm,1064,TA19
S0033,T02,LDIAM,0.4,mm,1064,TA19
S0033,,SUMDIAM,1.2,mm,1064,TA19
S0033,T01,LDIAM,0.8,mm,1120,TA20
S0033,T02,LDIAM,0.4,mm,1120,TA20
S0033,,SUMDIAM,1.2,mm,1120,TA20
S0033,T01,LDIAM,0.8,mm,1176,TA21
S0033,T02,LDIAM,0.4,mm,1176,TA21
S0033,,SUMDIAM,1.2,mm,1176,TA21
S0033,T01,LDIAM,0.8,mm,1232,TA22
S0033,T02,LDIAM,0.4,mm,1232,TA22
S0033,,SUMDIAM,1.2,mm,1232,TA22
S0033,T01,LDIAM,0.8,mm,1288,TA23
S0033,T02,LDIAM,0.4,mm,1288,TA23
S0033,,SUMDIAM,1.2,mm,1288,TA23
S0033,T01,LDIAM,0.8,mm,1344,TA24
S0033,T02,LDIAM,0.4,mm,1344,TA24
S0033,,SUMDIAM,1.2,mm,1344,TA24
S0033,T01,LDIAM,0.8,mm,1400,TA25
S0033,T02,LDIAM,0.4,mm,1400,TA25
S0033,,SUMDIAM,1.2,mm,1400,TA25
S0033,T01,LDIAM,0.8,mm,1456,TA26
S0033,T02,LDIAM,0.4,mm,1456,TA26
S0033,,SUMDIAM,1.2,mm,1456,TA26
S0033,T01,LDIAM,0.8,mm,1512,TA27
S0033,T02,LDIAM,0.4,mm,1512,TA27
S0033,,SUMDIAM,1.2,mm,1512,TA27
S0033,T01,LDIAM,0.8,mm,1568,TA28
S0033,T02,LDIAM,0.4,mm,1568,TA28
S0033,,SUMDIAM,1.2,mm,1568,TA28
S0033,T01,LDIAM,0.8,mm,1624,TA29
S0033,T02,LDIAM,0.4,mm,1624,TA29
S0033,,SUMDIAM,1.2,mm,1624,TA29
S0033,T01,LDIAM,0.8,mm,1680,TA30
S0033,T02,LDIAM,0.4,mm,1680,TA30
S0033,,SUMDIAM,1.2,mm,1680,TA30
S0033,T01,LDIAM,0.8,mm,1736,TA31
S0033,T02,LDIAM,0.4,mm,1736,TA31
S0033,,SUMDIAM,1.2,mm,1736,TA31
S0033,T01,LDIAM,0.8,mm,1792,TA32
S0033,T02,LDIAM,0.4,mm,1792,TA32
S0033,,SUMDIAM,1.2,mm,1792,TA32
S0034,T01,LDIAM,39.5,mm,0,BASELINE
S0034,,SUMDIAM,39.5,mm,0,BASELINE
S0034,T01,LDIAM,35.8,mm,56,TA1
S0034,,SUMDIAM,35.8,mm,56,TA1
S0034,T01,LDIAM,32.1,mm,112,TA2
S0034,,SUMDIAM,32.1,mm,112,TA2
S0034,T01,LDIAM,32.1,mm,168,TA3
S0034,,SUMDIAM,32.1,mm,168,TA3
S0034,T01,LDIAM,32.1,mm,224,TA4
S0034,,SUMDIAM,32.1,mm,224,TA4
S0034,T01,LDIAM,32.1,mm,280,TA5
S0034,,SUMDIAM,32.1,mm,280,TA5
S0034,T01,LDIAM,32.1,mm,336,TA6
S0034,,SUMDIAM,32.1,mm,336,TA6
S0034,T01,LDIAM,32.1,mm,392,TA7
S0034,,SUMDIAM,32.1,mm,392,TA7
S0034,T01,LDIAM,32.1,mm,448,TA8
S0034,,SUMDIAM,32.1,mm,448,TA8
S0034,T01,LDIAM,32.1,mm,504,TA9
S0034,,SUMDIAM,32.1,mm,504,TA9
S0034,T01,LDIAM,32.1,mm,560,TA10
S0034,,SUMDIAM,32.1,mm,560,TA10
S0034,T01,LDIAM,32.1,mm,616,TA11
S0034,,SUMDIAM,32.1,mm,616,TA11
S0034,T01,LDIAM,32.1,mm,672,TA12
S0034,,SUMDIAM,32.1,mm,672,TA12
S0034,T01,LDIAM,32.1,mm,728,TA13
S0034,,SUMDIAM,32.1,mm,728,TA13
S0034,T01,LDIAM,32.1,mm,784,TA14
S0034,,SUMDIAM,32.1,mm,784,TA14
S0034,T01,LDIAM,32.1,mm,840,TA15
S0034,,SUMDIAM,32.1,mm,840,TA15
S0034,T01,LDIAM,32.1,mm,896,TA16
S0034,,SUMDIAM,32.1,mm,896,TA16
S0034,T01,LDIAM,32.1,mm,952,TA17
S0034,,SUMDIAM,32.1,mm,952,TA17
S0034,T01,LDIAM,32.1,mm,1008,TA18
S0034,,SUMDIAM,32.1,mm,1008,TA18
S0034,T01,LDIAM,32.1,mm,1064,TA19
S0034,,SUMDIAM,32.1,mm,1064,TA19
S0034,T01,LDIAM,32.1,mm,1120,TA20
S0034,,SUMDIAM,32.1,mm,1120,TA20
S0034,T01,LDIAM,32.1,mm,1176,TA21
S0034,,SUMDIAM,32.1,mm,1176,TA21
S0034,T01,LDIAM,32.1,mm,1232,TA22
S0034,,SUMDIAM,32.1,mm,1232,TA22
S0034,T01,LDIAM,32.1,mm,1288,TA23
S0034,,SUMDIAM,32.1,mm,1288,TA23
S0034,T01,LDIAM,32.1,mm,1344,TA24
S0034,,SUMDIAM,32.1,mm,1344,TA24
S0034,T01,LDIAM,32.1,mm,1400,TA25
S0034,,SUMDIAM,32.1,mm,1400,TA25
S0034,T01,LDIAM,32.1,mm,1456,TA26
S0034,,SUMDIAM,32.1,mm,1456,TA26
S0034,T01,LDIAM,32.1,mm,1512,TA27
S0034,,SUMDIAM,32.1,mm,1512,TA27
S0034,T01,LDIAM,32.1,mm,1568,TA28
S0034,,SUMDIAM,32.1,mm,1568,TA28
S0034,T01,LDIAM,32.1,mm,1624,TA29
S0034,,SUMDIAM,32.1,mm,1624,TA29
S0034,T01,LDIAM,32.1,mm,1680,TA30
S0034,,SUMDIAM,32.1,mm,1680,TA30
S0034,T01,LDIAM,32.1,mm,1736,TA31
S0034,,SUMDIAM,32.1,mm,1736,TA31
S0034,T01,LDIAM,32.1,mm,1792,TA32
S0034,,SUMDIAM,32.1,mm,1792,TA32
S0036,T01,LDIAM,22.0,mm,0,BASELINE
S0036,T02,LDIAM,18.4,mm,0,BASELINE
S0036,T03,LDIAM,32.8,mm,0,BASELINE
S0036,T04,LDIAM,31.1,mm,0,BASELINE
S0036,,SUMDIAM,104.3,mm,0,BASELINE
S0036,T01,LDIAM,13.2,mm,56,TA1
S0036,T02,LDIAM,11.1,mm,56,TA1
S0036,T03,LDIAM,19.7,mm,56,TA1
S0036,T04,LDIAM,18.7,mm,56,TA1
S0036,,SUMDIAM,62.7,mm,56,TA1
S0036,T01,LDIAM,4.4,mm,112,TA2
S0036,T02,LDIAM,3.7,mm,112,TA2
S0036,T03,LDIAM,6.6,mm,112,TA2
S0036,T04,LDIAM,6.3,mm,112,TA2
S0036,,SUMDIAM,21.0,mm,112,TA2
S0036,T01,LDIAM,4.4,mm,168,TA3
S0036,T02,LDIAM,3.7,mm,168,TA3
S0036,T03,LDIAM,6.6,mm,168,TA3
S0036,T04,LDIAM,6.3,mm,168,TA3
S0036,,SUMDIAM,21.0,mm,168,TA3
S0036,T01,LDIAM,4.4,mm,224,TA4
S0036,T02,LDIAM,3.7,mm,224,TA4
S0036,T03,LDIAM,6.6,mm,224,TA4
S0036,T04,LDIAM,6.3,mm,224,TA4
S0036,,SUMDIAM,21.0,mm,224,TA4
S0036,T01,LDIAM,4.4,mm,280,TA5
S0036,T02,LDIAM,3.7,mm,280,TA5
S0036,T03,LDIAM,6.6,mm,280,TA5
S0036,T04,LDIAM,6.3,mm,280,TA5
S0036,,SUMDIAM,21.0,mm,280,TA5
S0036,T01,LDIAM,4.4,mm,336,TA6
S0036,T02,LDIAM,3.7,mm,336,TA6
S0036,T03,LDIAM,6.6,mm,336,TA6
S0036,T04,LDIAM,6.3,mm,336,TA6
S0036,,SUMDIAM,21.0,mm,336,TA6
S0036,T01,LDIAM,4.4,mm,392,TA7
S0036,T02,LDIAM,3.7,mm,392,TA7
S0036,T03,LDIAM,6.6,mm,392,TA7
S0036,T04,LDIAM,6.3,mm,392,TA7
S0036,,SUMDIAM,21.0,mm,392,TA7
S0036,T01,LDIAM,4.4,mm,448,TA8
S0036,T02,LDIAM,3.7,mm,448,TA8
S0036,T03,LDIAM,6.6,mm,448,TA8
S0036,T04,LDIAM,6.3,mm,448,TA8
S0036,,SUMDIAM,21.0,mm,448,TA8
S0036,T01,LDIAM,4.4,mm,504,TA9
S0036,T02,LDIAM,3.7,mm,504,TA9
S0036,T03,LDIAM,6.6,mm,504,TA9
S0036,T04,LDIAM,6.3,mm,504,TA9
S0036,,SUMDIAM,21.0,mm,504,TA9
S0036,T01,LDIAM,4.4,mm,560,TA10
S0036,T02,LDIAM,3.7,mm,560,TA10
S0036,T03,LDIAM,6.6,mm,560,TA10
S0036,T04,LDIAM,6.3,mm,560,TA10
S0036,,SUMDIAM,21.0,mm,560,TA10
S0036,T01,LDIAM,4.4,mm,616,TA11
S0036,T02,LDIAM,3.7,mm,616,TA11
S0036,T03,LDIAM,6.6,mm,616,TA11
S0036,T04,LDIAM,6.3,mm,616,TA11
S0036,,SUMDIAM,21.0,mm,616,TA11
S0036,T01,LDIAM,4.4,mm,672,TA12
S0036,T02,LDIAM,3.7,mm,672,TA12
S0036,T03,LDIAM,6.6,mm,672,TA12
S0036,T04,LDIAM,6.3,mm,672,TA12
S0036,,SUMDIAM,21.0,mm,672,TA12
S0036,T01,LDIAM,4.4,mm,728,TA13
S0036,T02,LDIAM,3.7,mm,728,TA13
S0036,T03,LDIAM,6.6,mm,728,TA13
S0036,T04,LDIAM,6.3,mm,728,TA13
S0036,,SUMDIAM,21.0,mm,728,TA13
S0036,T01,LDIAM,7.3,mm,784,TA14
S0036,T02,LDIAM,6.1,mm,784,TA14
S0036,T03,LDIAM,10.9,mm,784,TA14
S0036,T04,LDIAM,10.3,mm,784,TA14
S0036,,SUMDIAM,34.6,mm,784,TA14
S0036,T01,LDIAM,7.3,mm,840,TA15
S0036,T02,LDIAM,6.1,mm,840,TA15
S0036,T03,LDIAM,10.9,mm,840,TA15
S0036,T04,LDIAM,10.3,mm,840,TA15
S0036,,SUMDIAM,34.6,mm,840,TA15
S0036,T01,LDIAM,7.3,mm,896,TA16
S0036,T02,LDIAM,6.1,mm,896,TA16
S0036,T03,LDIAM,10.9,mm,896,TA16
S0036,T04,LDIAM,10.3,mm,896,TA16
S0036,,SUMDIAM,34.6,mm,896,TA16
S0036,T01,LDIAM,7.3,mm,952,TA17
S0036,T02,LDIAM,6.1,mm,952,TA17
S0036,T03,LDIAM,10.9,mm,952,TA17
S0036,T04,LDIAM,10.3,mm,952,TA17
S0036,,SUMDIAM,34.6,mm,952,TA17
S0036,T01,LDIAM,7.3,mm,1008,TA18
S0036,T02,LDIAM,6.1,mm,1008,TA18
S0036,T03,LDIAM,10.9,mm,1008,TA18
S0036,T04,LDIAM,10.3,mm,1008,TA18
S0036,,SUMDIAM,34.6,mm,1008,TA18
S0036,T01,LDIAM,7.3,mm,1064,TA19
S0036,T02,LDIAM,6.1,mm,1064,TA19
S0036,T03,LDIAM,10.9,mm,1064,TA19
S0036,T04,LDIAM,10.3,mm,1064,TA19
S0036,,SUMDIAM,34.6,mm,1064,TA19
S0038,T01,LDIAM,18.5,mm,0,BASELINE
S0038,T02,LDIAM,46.8,mm,0,BASELINE
S0038,,SUMDIAM,65.3,mm,0,BASELINE
S0038,T01,LDIAM,21.5,mm,56,TA1
S0038,T02,LDIAM,54.5,mm,56,TA1
S0038,,SUMDIAM,76.0,mm,56,TA1
S0038,T01,LDIAM,24.6,mm,112,TA2
S0038,T02,LDIAM,62.2,mm,112,TA2
S0038,,SUMDIAM,86.8,mm,112,TA2
S0038,T01,LDIAM,24.6,mm,168,TA3
S0038,T02,LDIAM,62.2,mm,168,TA3
S0038,,SUMDIAM,86.8,mm,168,TA3
S0038,T01,LDIAM,24.6,mm,224,TA4
S0038,T02,LDIAM,62.2,mm,224,TA4
S0038,,SUMDIAM,86.8,mm,224,TA4
S0038,T01,LDIAM,24.6,mm,280,TA5
S0038,T02,LDIAM,62.2,mm,280,TA5
S0038,,SUMDIAM,86.8,mm,280,TA5
S0039,T01,LDIAM,39.9,mm,0,BASELINE
S0039,,SUMDIAM,39.9,mm,0,BASELINE
S0039,T01,LDIAM,35.9,mm,56,TA1
S0039,,SUMDIAM,35.9,mm,56,TA1
S0039,T01,LDIAM,32.0,mm,112,TA2
S0039,,SUMDIAM,32.0,mm,112,TA2
S0039,T01,LDIAM,32.0,mm,168,TA3
S0039,,SUMDIAM,32.0,mm,168,TA3
S0040,T01,LDIAM,17.7,mm,0,BASELINE
S0040,T02,LDIAM,39.1,mm,0,BASELINE
S0040,T03,LDIAM,20.8,mm,0,BASELINE
S0040,T04,LDIAM,52.2,mm,0,BASELINE
S0040,,SUMDIAM,129.8,mm,0,BASELINE
S0040,T01,LDIAM,15.6,mm,56,TA1
S0040,T02,LDIAM,34.4,mm,56,TA1
S0040,T03,LDIAM,18.3,mm,56,TA1
S0040,T04,LDIAM,46.0,mm,56,TA1
S0040,,SUMDIAM,114.3,mm,56,TA1
S0040,T01,LDIAM,13.5,mm,112,TA2
S0040,T02,LDIAM,29.8,mm,112,TA2
S0040,T03,LDIAM,15.8,mm,112,TA2
S0040,T04,LDIAM,39.7,mm,112,TA2
S0040,,SUMDIAM,98.8,mm,112,TA2
S0040,T01,LDIAM,13.5,mm,168,TA3
S0040,T02,LDIAM,29.8,mm,168,TA3
S0040,T03,LDIAM,15.8,mm,168,TA3
S0040,T04,LDIAM,39.7,mm,168,TA3
S0040,,SUMDIAM,98.8,mm,168,TA3
S0040,T01,LDIAM,13.5,mm,224,TA4
S0040,T02,LDIAM,29.8,mm,224,TA4
S0040,T03,LDIAM,15.8,mm,224,TA4
S0040,T04,LDIAM,39.7,mm,224,TA4
S0040,,SUMDIAM,98.8,mm,224,TA4
S0040,T01,LDIAM,13.5,mm,280,TA5
S0040,T02,LDIAM,29.8,mm,280,TA5
S0040,T03,LDIAM,15.8,mm,280,TA5
S0040,T04,LDIAM,39.7,mm,280,TA5
S0040,,SUMDIAM,98.8,mm,280,TA5
S0040,T01,LDIAM,13.5,mm,336,TA6
S0040,T02,LDIAM,29.8,mm,336,TA6
S0040,T03,LDIAM,15.8,mm,336,TA6
S0040,T04,LDIAM,39.7,mm,336,TA6
S0040,,SUMDIAM,98.8,mm,336,TA6
S0040,T01,LDIAM,13.5,mm,392,TA7
S0040,T02,LDIAM,29.8,mm,392,TA7
S0040,T03,LDIAM,15.8,mm,392,TA7
S0040,T04,LDIAM,39.7,mm,392,TA7
S0040,,SUMDIAM,98.8,mm,392,TA7
S0040,T01,LDIAM,13.5,mm,448,TA8
S0040,T02,LDIAM,29.8,mm,448,TA8
S0040,T03,LDIAM,15.8,mm,448,TA8
S0040,T04,LDIAM,39.7,mm,448,TA8
S0040,,SUMDIAM,98.8,mm,448,TA8
S0040,T01,LDIAM,13.5,mm,504,TA9
S0040,T02,LDIAM,29.8,mm,504,TA9
S0040,T03,LDIAM,15.8,mm,504,TA9
S0040,T04,LDIAM,39.7,mm,504,TA9
S0040,,SUMDIAM,98.8,mm,504,TA9
S0040,T01,LDIAM,13.5,mm,560,TA10
S0040,T02,LDIAM,29.8,mm,560,TA10
S0040,T03,LDIAM,15.8,mm,560,TA10
S0040,T04,LDIAM,39.7,mm,560,TA10
S0040,,SUMDIAM,98.8,mm,560,TA10
S0040,T01,LDIAM,13.5,mm,616,TA11
S0040,T02,LDIAM,29.8,mm,616,TA11
S0040,T03,LDIAM,15.8,mm,616,TA11
S0040,T04,LDIAM,39.7,mm,616,TA11
S0040,,SUMDIAM,98.8,mm,616,TA11
S0040,T01,LDIAM,13.5,mm,672,TA12
S0040,T02,LDIAM,29.8,mm,672,TA12
S0040,T03,LDIAM,15.8,mm,672,TA12
S0040,T04,LDIAM,39.7,mm,672,TA12
S0040,,SUMDIAM,98.8,mm,672,TA12
S0040,T01,LDIAM,13.5,mm,728,TA13
S0040,T02,LDIAM,29.8,mm,728,TA13
S0040,T03,LDIAM,15.8,mm,728,TA13
S0040,T04,LDIAM,39.7,mm,728,TA13
S0040,,SUMDIAM,98.8,mm,728,TA13
S0040,T01,LDIAM,13.5,mm,784,TA14
S0040,T02,LDIAM,29.8,mm,784,TA14
S0040,T03,LDIAM,15.8,mm,784,TA14
S0040,T04,LDIAM,39.7,mm,784,TA14
S0040,,SUMDIAM,98.8,mm,784,TA14
S0040,T01,LDIAM,13.5,mm,840,TA15
S0040,T02,LDIAM,29.8,mm,840,TA15
S0040,T03,LDIAM,15.8,mm,840,TA15
S0040,T04,LDIAM,39.7,mm,840,TA15
S0040,,SUMDIAM,98.8,mm,840,TA15
S0040,T01,LDIAM,13.5,mm,896,TA16
S0040,T02,LDIAM,29.8,mm,896,TA16
S0040,T03,LDIAM,15.8,mm,896,TA16
S0040,T04,LDIAM,39.7,mm,896,TA16
S0040,,SUMDIAM,98.8,mm,896,TA16
S0040,T01,LDIAM,13.5,mm,952,TA17
S0040,T02,LDIAM,29.8,mm,952,TA17
S0040,T03,LDIAM,15.8,mm,952,TA17
S0040,T04,LDIAM,39.7,mm,952,TA17
S0040,,SUMDIAM,98.8,mm,952,TA17
S0040,T01,LDIAM,13.5,mm,1008,TA18
S0040,T02,LDIAM,29.8,mm,1008,TA18
S0040,T03,LDIAM,15.8,mm,1008,TA18
S0040,T04,LDIAM,39.7,mm,1008,TA18
S0040,,SUMDIAM,98.8,mm,1008,TA18
S0040,T01,LDIAM,13.5,mm,1064,TA19
S0040,T02,LDIAM,29.8,mm,1064,TA19
S0040,T03,LDIAM,15.8,mm,1064,TA19
S0040,T04,LDIAM,39.7,mm,1064,TA19
S0040,,SUMDIAM,98.8,mm,1064,TA19
S0040,T01,LDIAM,13.5,mm,1120,TA20
S0040,T02,LDIAM,29.8,mm,1120,TA20
S0040,T03,LDIAM,15.8,mm,1120,TA20
S0040,T04,LDIAM,39.7,mm,1120,TA20
S0040,,SUMDIAM,98.8,mm,1120,TA20
S0040,T01,LDIAM,13.5,mm,1176,TA21
S0040,T02,LDIAM,29.8,mm,1176,TA21
S0040,T03,LDIAM,15.8,mm,1176,TA21
S0040,T04,LDIAM,39.7,mm,1176,TA21
S0040,,SUMDIAM,98.8,mm,1176,TA21
S0040,T01,LDIAM,13.5,mm,1232,TA22
S0040,T02,LDIAM,29.8,mm,1232,TA22
S0040,T03,LDIAM,15.8,mm,1232,TA22
S0040,T04,LDIAM,39.7,mm,1232,TA22
S0040,,SUMDIAM,98.8,mm,1232,TA22
S0040,T01,LDIAM,13.5,mm,1288,TA23
S0040,T02,LDIAM,29.8,mm,1288,TA23
S0040,T03,LDIAM,15.8,mm,1288,TA23
S0040,T04,LDIAM,39.7,mm,1288,TA23
S0040,,SUMDIAM,98.8,mm,1288,TA23
S0040,T01,LDIAM,13.5,mm,1344,TA24
S0040,T02,LDIAM,29.8,mm,1344,TA24
S0040,T03,LDIAM,15.8,mm,1344,TA24
S0040,T04,LDIAM,39.7,mm,1344,TA24
S0040,,SUMDIAM,98.8,mm,1344,TA24
S0040,T01,LDIAM,13.5,mm,1400,TA25
S0040,T02,LDIAM,29.8,mm,1400,TA25
S0040,T03,LDIAM,15.8,mm,1400,TA25
S0040,T04,LDIAM,39.7,mm,1400,TA25
S0040,,SUMDIAM,98.8,mm,1400,TA25
S0040,T01,LDIAM,13.5,mm,1456,TA26
S0040,T02,LDIAM,29.8,mm,1456,TA26
S0040,T03,LDIAM,15.8,mm,1456,TA26
S0040,T04,LDIAM,39.7,mm,1456,TA26
S0040,,SUMDIAM,98.8,mm,1456,TA26
S0040,T01,LDIAM,13.5,mm,1512,TA27
S0040,T02,LDIAM,29.8,mm,1512,TA27
S0040,T03,LDIAM,15.8,mm,1512,TA27
S0040,T04,LDIAM,39.7,mm,1512,TA27
S0040,,SUMDIAM,98.8,mm,1512,TA27
S0040,T01,LDIAM,13.5,mm,1568,TA28
S0040,T02,LDIAM,29.8,mm,1568,TA28
S0040,T03,LDIAM,15.8,mm,1568,TA28
S0040,T04,LDIAM,39.7,mm,1568,TA28
S0040,,SUMDIAM,98.8,mm,1568,TA28
S0040,T01,LDIAM,13.5,mm,1624,TA29
S0040,T02,LDIAM,29.8,mm,1624,TA29
S0040,T03,LDIAM,15.8,mm,1624,TA29
S0040,T04,LDIAM,39.7,mm,1624,TA29
S0040,,SUMDIAM,98.8,mm,1624,TA29
S0040,T01,LDIAM,13.5,mm,1680,TA30
S0040,T02,LDIAM,29.8,mm,1680,TA30
S0040,T03,LDIAM,15.8,mm,1680,TA30
S0040,T04,LDIAM,39.7,mm,1680,TA30
S0040,,SUMDIAM,98.8,mm,1680,TA30
S0040,T01,LDIAM,13.5,mm,1736,TA31
S0040,T02,LDIAM,29.8,mm,1736,TA31
S0040,T03,LDIAM,15.8,mm,1736,TA31
S0040,T04,LDIAM,39.7,mm,1736,TA31
S0040,,SUMDIAM,98.8,mm,1736,TA31
S0040,T01,LDIAM,13.5,mm,1792,TA32
S0040,T02,LDIAM,29.8,mm,1792,TA32
S0040,T03,LDIAM,15.8,mm,1792,TA32
S0040,T04,LDIAM,39.7,mm,1792,TA32
S0040,,SUMDIAM,98.8,mm,1792,TA32
S0041,T01,LDIAM,32.9,mm,0,BASELINE
S0041,T02,LDIAM,26.8,mm,0,BASELINE
S0041,T03,LDIAM,30.7,mm,0,BASELINE
S0041,T04,LDIAM,42.9,mm,0,BASELINE
S0041,T05,LDIAM,16.9,mm,0,BASELINE
S0041,,SUMDIAM,150.2,mm,0,BASELINE
S0041,T01,LDIAM,19.3,mm,56,TA1
S0041,T02,LDIAM,15.7,mm,56,TA1
S0041,T03,LDIAM,18.0,mm,56,TA1
S0041,T04,LDIAM,25.1,mm,56,TA1
S0041,T05,LDIAM,9.9,mm,56,TA1
S0041,,SUMDIAM,87.9,mm,56,TA1
S0041,T01,LDIAM,5.6,mm,112,TA2
S0041,T02,LDIAM,4.6,mm,112,TA2
S0041,T03,LDIAM,5.2,mm,112,TA2
S0041,T04,LDIAM,7.3,mm,112,TA2
S0041,T05,LDIAM,2.9,mm,112,TA2
S0041,,SUMDIAM,25.6,mm,112,TA2
S0041,T01,LDIAM,5.6,mm,168,TA3
S0041,T02,LDIAM,4.6,mm,168,TA3
S0041,T03,LDIAM,5.2,mm,168,TA3
S0041,T04,LDIAM,7.3,mm,168,TA3
S0041,T05,LDIAM,2.9,mm,168,TA3
S0041,,SUMDIAM,25.6,mm,168,TA3
S0041,T01,LDIAM,5.6,mm,224,TA4
S0041,T02,LDIAM,4.6,mm,224,TA4
S0041,T03,LDIAM,5.2,mm,224,TA4
S0041,T04,LDIAM,7.3,mm,224,TA4
S0041,T05,LDIAM,2.9,mm,224,TA4
S0041,,SUMDIAM,25.6,mm,224,TA4
S0041,T01,LDIAM,5.6,mm,280,TA5
S0041,T02,LDIAM,4.6,mm,280,TA5
S0041,T03,LDIAM,5.2,mm,280,TA5
S0041,T04,LDIAM,7.3,mm,280,TA5
S0041,T05,LDIAM,2.9,mm,280,TA5
S0041,,SUMDIAM,25.6,mm,280,TA5
S0041,T01,LDIAM,5.6,mm,336,TA6
S0041,T02,LDIAM,4.6,mm,336,TA6
S0041,T03,LDIAM,5.2,mm,336,TA6
S0041,T04,LDIAM,7.3,mm,336,TA6
S0041,T05,LDIAM,2.9,mm,336,TA6
S0041,,SUMDIAM,25.6,mm,336,TA6
S0041,T01,LDIAM,5.6,mm,392,TA7
S0041,T02,LDIAM,4.6,mm,392,TA7
S0041,T03,LDIAM,5.2,mm,392,TA7
S0041,T04,LDIAM,7.3,mm,392,TA7
S0041,T05,LDIAM,2.9,mm,392,TA7
S0041,,SUMDIAM,25.6,mm,392,TA7
S0041,T01,LDIAM,5.6,mm,448,TA8
S0041,T02,LDIAM,4.6,mm,448,TA8
S0041,T03,LDIAM,5.2,mm,448,TA8
S0041,T04,LDIAM,7.3,mm,448,TA8
S0041,T05,LDIAM,2.9,mm,448,TA8
S0041,,SUMDIAM,25.6,mm,448,TA8
S0041,T01,LDIAM,5.6,mm,504,TA9
S0041,T02,LDIAM,4.6,mm,504,TA9
S0041,T03,LDIAM,5.2,mm,504,TA9
S0041,T04,LDIAM,7.3,mm,504,TA9
S0041,T05,LDIAM,2.9,mm,504,TA9
S0041,,SUMDIAM,25.6,mm,504,TA9
S0041,T01,LDIAM,5.6,mm,560,TA10
S0041,T02,LDIAM,4.6,mm,560,TA10
S0041,T03,LDIAM,5.2,mm,560,TA10
S0041,T04,LDIAM,7.3,mm,560,TA10
S0041,T05,LDIAM,2.9,mm,560,TA10
S0041,,SUMDIAM,25.6,mm,560,TA10
S0041,T01,LDIAM,5.6,mm,616,TA11
S0041,T02,LDIAM,4.6,mm,616,TA11
S0041,T03,LDIAM,5.2,mm,616,TA11
S0041,T04,LDIAM,7.3,mm,616,TA11
S0041,T05,LDIAM,2.9,mm,616,TA11
S0041,,SUMDIAM,25.6,mm,616,TA11
S0041,T01,LDIAM,5.6,mm,672,TA12
S0041,T02,LDIAM,4.6,mm,672,TA12
S0041,T03,LDIAM,5.2,mm,672,TA12
S0041,T04,LDIAM,7.3,mm,672,TA12
S0041,T05,LDIAM,2.9,mm,672,TA12
S0041,,SUMDIAM,25.6,mm,672,TA12
S0041,T01,LDIAM,5.6,mm,728,TA13
S0041,T02,LDIAM,4.6,mm,728,TA13
S0041,T03,LDIAM,5.2,mm,728,TA13
S0041,T04,LDIAM,7.3,mm,728,TA13
S0041,T05,LDIAM,2.9,mm,728,TA13
S0041,,SUMDIAM,25.6,mm,728,TA13
S0041,T01,LDIAM,5.6,mm,784,TA14
S0041,T02,LDIAM,4.6,mm,784,TA14
S0041,T03,LDIAM,5.2,mm,784,TA14
S0041,T04,LDIAM,7.3,mm,784,TA14
S0041,T05,LDIAM,2.9,mm,784,TA14
S0041,,SUMDIAM,25.6,mm,784,TA14
S0041,T01,LDIAM,5.6,mm,840,TA15
S0041,T02,LDIAM,4.6,mm,840,TA15
S0041,T03,LDIAM,5.2,mm,840,TA15
S0041,T04,LDIAM,7.3,mm,840,TA15
S0041,T05,LDIAM,2.9,mm,840,TA15
S0041,,SUMDIAM,25.6,mm,840,TA15
S0041,T01,LDIAM,5.6,mm,896,TA16
S0041,T02,LDIAM,4.6,mm,896,TA16
S0041,T03,LDIAM,5.2,mm,896,TA16
S0041,T04,LDIAM,7.3,mm,896,TA16
S0041,T05,LDIAM,2.9,mm,896,TA16
S0041,,SUMDIAM,25.6,mm,896,TA16
S0041,T01,LDIAM,5.6,mm,952,TA17
S0041,T02,LDIAM,4.6,mm,952,TA17
S0041,T03,LDIAM,5.2,mm,952,TA17
S0041,T04,LDIAM,7.3,mm,952,TA17
S0041,T05,LDIAM,2.9,mm,952,TA17
S0041,,SUMDIAM,25.6,mm,952,TA17
S0041,T01,LDIAM,5.6,mm,1008,TA18
S0041,T02,LDIAM,4.6,mm,1008,TA18
S0041,T03,LDIAM,5.2,mm,1008,TA18
S0041,T04,LDIAM,7.3,mm,1008,TA18
S0041,T05,LDIAM,2.9,mm,1008,TA18
S0041,,SUMDIAM,25.6,mm,1008,TA18
S0041,T01,LDIAM,5.6,mm,1064,TA19
S0041,T02,LDIAM,4.6,mm,1064,TA19
S0041,T03,LDIAM,5.2,mm,1064,TA19
S0041,T04,LDIAM,7.3,mm,1064,TA19
S0041,T05,LDIAM,2.9,mm,1064,TA19
S0041,,SUMDIAM,25.6,mm,1064,TA19
S0041,T01,LDIAM,5.6,mm,1120,TA20
S0041,T02,LDIAM,4.6,mm,1120,TA20
S0041,T03,LDIAM,5.2,mm,1120,TA20
S0041,T04,LDIAM,7.3,mm,1120,TA20
S0041,T05,LDIAM,2.9,mm,1120,TA20
S0041,,SUMDIAM,25.6,mm,1120,TA20
S0041,T01,LDIAM,5.6,mm,1176,TA21
S0041,T02,LDIAM,4.6,mm,1176,TA21
S0041,T03,LDIAM,5.2,mm,1176,TA21
S0041,T04,LDIAM,7.3,mm,1176,TA21
S0041,T05,LDIAM,2.9,mm,1176,TA21
S0041,,SUMDIAM,25.6,mm,1176,TA21
S0041,T01,LDIAM,5.6,mm,1232,TA22
S0041,T02,LDIAM,4.6,mm,1232,TA22
S0041,T03,LDIAM,5.2,mm,1232,TA22
S0041,T04,LDIAM,7.3,mm,1232,TA22
S0041,T05,LDIAM,2.9,mm,1232,TA22
S0041,,SUMDIAM,25.6,mm,1232,TA22
S0041,T01,LDIAM,5.6,mm,1288,TA23
S0041,T02,LDIAM,4.6,mm,1288,TA23
S0041,T03,LDIAM,5.2,mm,1288,TA23
S0041,T04,LDIAM,7.3,mm,1288,TA23
S0041,T05,LDIAM,2.9,mm,1288,TA23
S0041,,SUMDIAM,25.6,mm,1288,TA23
S0041,T01,LDIAM,5.6,mm,1344,TA24
S0041,T02,LDIAM,4.6,mm,1344,TA24
S0041,T03,LDIAM,5.2,mm,1344,TA24
S0041,T04,LDIAM,7.3,mm,1344,TA24
S0041,T05,LDIAM,2.9,mm,1344,TA24
S0041,,SUMDIAM,25.6,mm,1344,TA24
S0041,T01,LDIAM,5.6,mm,1400,TA25
S0041,T02,LDIAM,4.6,mm,1400,TA25
S0041,T03,LDIAM,5.2,mm,1400,TA25
S0041,T04,LDIAM,7.3,mm,1400,TA25
S0041,T05,LDIAM,2.9,mm,1400,TA25
S0041,,SUMDIAM,25.6,mm,1400,TA25
S0041,T01,LDIAM,5.6,mm,1456,TA26
S0041,T02,LDIAM,4.6,mm,1456,TA26
S0041,T03,LDIAM,5.2,mm,1456,TA26
S0041,T04,LDIAM,7.3,mm,1456,TA26
S0041,T05,LDIAM,2.9,mm,1456,TA26
S0041,,SUMDIAM,25.6,mm,1456,TA26
S0041,T01,LDIAM,5.6,mm,1512,TA27
S0041,T02,LDIAM,4.6,mm,1512,TA27
S0041,T03,LDIAM,5.2,mm,1512,TA27
S0041,T04,LDIAM,7.3,mm,1512,TA27
S0041,T05,LDIAM,2.9,mm,1512,TA27
S0041,,SUMDIAM,25.6,mm,1512,TA27
S0041,T01,LDIAM,5.6,mm,1568,TA28
S0041,T02,LDIAM,4.6,mm,1568,TA28
S0041,T03,LDIAM,5.2,mm,1568,TA28
S0041,T04,LDIAM,7.3,mm,1568,TA28
S0041,T05,LDIAM,2.9,mm,1568,TA28
S0041,,SUMDIAM,25.6,mm,1568,TA28
S0041,T01,LDIAM,5.6,mm,1624,TA29
S0041,T02,LDIAM,4.6,mm,1624,TA29
S0041,T03,LDIAM,5.2,mm,1624,TA29
S0041,T04,LDIAM,7.3,mm,1624,TA29
S0041,T05,LDIAM,2.9,mm,1624,TA29
S0041,,SUMDIAM,25.6,mm,1624,TA29
S0041,T01,LDIAM,5.6,mm,1680,TA30
S0041,T02,LDIAM,4.6,mm,1680,TA30
S0041,T03,LDIAM,5.2,mm,1680,TA30
S0041,T04,LDIAM,7.3,mm,1680,TA30
S0041,T05,LDIAM,2.9,mm,1680,TA30
S0041,,SUMDIAM,25.6,mm,1680,TA30
S0041,T01,LDIAM,5.6,mm,1736,TA31
S0041,T02,LDIAM,4.6,mm,1736,TA31
S0041,T03,LDIAM,5.2,mm,1736,TA31
S0041,T04,LDIAM,7.3,mm,1736,TA31
S0041,T05,LDIAM,2.9,mm,1736,TA31
S0041,,SUMDIAM,25.6,mm,1736,TA31
S0041,T01,LDIAM,5.6,mm,1792,TA32
S0041,T02,LDIAM,4.6,mm,1792,TA32
S0041,T03,LDIAM,5.2,mm,1792,TA32
S0041,T04,LDIAM,7.3,mm,1792,TA32
S0041,T05,LDIAM,2.9,mm,1792,TA32
S0041,,SUMDIAM,25.6,mm,1792,TA32
S0046,T01,LDIAM,43.5,mm,0,BASELINE
S0046,T02,LDIAM,53.3,mm,0,BASELINE
S0046,T03,LDIAM,58.2,mm,0,BASELINE
S0046,,SUMDIAM,155.0,mm,0,BASELINE
S0046,T01,LDIAM,32.3,mm,56,TA1
S0046,T02,LDIAM,39.6,mm,56,TA1
S0046,T03,LDIAM,43.2,mm,56,TA1
S0046,,SUMDIAM,115.1,mm,56,TA1
S0046,T01,LDIAM,21.1,mm,112,TA2
S0046,T02,LDIAM,25.8,mm,112,TA2
S0046,T03,LDIAM,28.2,mm,112,TA2
S0046,,SUMDIAM,75.1,mm,112,TA2
S0046,T01,LDIAM,21.1,mm,168,TA3
S0046,T02,LDIAM,25.8,mm,168,TA3
S0046,T03,LDIAM,28.2,mm,168,TA3
S0046,,SUMDIAM,75.1,mm,168,TA3
S0046,T01,LDIAM,21.1,mm,224,TA4
S0046,T02,LDIAM,25.8,mm,224,TA4
S0046,T03,LDIAM,28.2,mm,224,TA4
S0046,,SUMDIAM,75.1,mm,224,TA4
S0046,T01,LDIAM,21.1,mm,280,TA5
S0046,T02,LDIAM,25.8,mm,280,TA5
S0046,T03,LDIAM,28.2,mm,280,TA5
S0046,,SUMDIAM,75.1,mm,280,TA5
S0046,T01,LDIAM,21.1,mm,336,TA6
S0046,T02,LDIAM,25.8,mm,336,TA6
S0046,T03,LDIAM,28.2,mm,336,TA6
S0046,,SUMDIAM,75.1,mm,336,TA6
S0046,T01,LDIAM,21.1,mm,392,TA7
S0046,T02,LDIAM,25.8,mm,392,TA7
S0046,T03,LDIAM,28.2,mm,392,TA7
S0046,,SUMDIAM,75.1,mm,392,TA7
S0046,T01,LDIAM,21.1,mm,448,TA8
S0046,T02,LDIAM,25.8,mm,448,TA8
S0046,T03,LDIAM,28.2,mm,448,TA8
S0046,,SUMDIAM,75.1,mm,448,TA8
S0046,T01,LDIAM,21.1,mm,504,TA9
S0046,T02,LDIAM,25.8,mm,504,TA9
S0046,T03,LDIAM,28.2,mm,504,TA9
S0046,,SUMDIAM,75.1,mm,504,TA9
S0046,T01,LDIAM,21.1,mm,560,TA10
S0046,T02,LDIAM,25.8,mm,560,TA10
S0046,T03,LDIAM,28.2,mm,560,TA10
S0046,,SUMDIAM,75.1,mm,560,TA10
S0046,T01,LDIAM,21.1,mm,616,TA11
S0046,T02,LDIAM,25.8,mm,616,TA11
S0046,T03,LDIAM,28.2,mm,616,TA11
S0046,,SUMDIAM,75.1,mm,616,TA11
S0046,T01,LDIAM,21.1,mm,672,TA12
S0046,T02,LDIAM,25.8,mm,672,TA12
S0046,T03,LDIAM,28.2,mm,672,TA12
S0046,,SUMDIAM,75.1,mm,672,TA12
S0046,T01,LDIAM,21.1,mm,728,TA13
S0046,T02,LDIAM,25.8,mm,728,TA13
S0046,T03,LDIAM,28.2,mm,728,TA13
S0046,,SUMDIAM,75.1,mm,728,TA13
S0046,T01,LDIAM,21.1,mm,784,TA14
S0046,T02,LDIAM,25.8,mm,784,TA14
S0046,T03,LDIAM,28.2,mm,784,TA14
S0046,,SUMDIAM,75.1,mm,784,TA14
S0046,T01,LDIAM,21.1,mm,840,TA15
S0046,T02,LDIAM,25.8,mm,840,TA15
S0046,T03,LDIAM,28.2,mm,840,TA15
S0046,,SUMDIAM,75.1,mm,840,TA15
S0046,T01,LDIAM,21.1,mm,896,TA16
S0046,T02,LDIAM,25.8,mm,896,TA16
S0046,T03,LDIAM,28.2,mm,896,TA16
S0046,,SUMDIAM,75.1,mm,896,TA16
S0046,T01,LDIAM,21.1,mm,952,TA17
S0046,T02,LDIAM,25.8,mm,952,TA17
S0046,T03,LDIAM,28.2,mm,952,TA17
S0046,,SUMDIAM,75.1,mm,952,TA17
S0046,T01,LDIAM,21.1,mm,1008,TA18
S0046,T02,LDIAM,25.8,mm,1008,TA18
S0046,T03,LDIAM,28.2,mm,1008,TA18
S0046,,SUMDIAM,75.1,mm,1008,TA18
S0046,T01,LDIAM,21.1,mm,1064,TA19
S0046,T02,LDIAM,25.8,mm,1064,TA19
S0046,T03,LDIAM,28.2,mm,1064,TA19
S0046,,SUMDIAM,75.1,mm,1064,TA19
S0046,T01,LDIAM,21.1,mm,1120,TA20
S0046,T02,LDIAM,25.8,mm,1120,TA20
S0046,T03,LDIAM,28.2,mm,1120,TA20
S0046,,SUMDIAM,75.1,mm,1120,TA20
S0046,T01,LDIAM,21.1,mm,1176,TA21
S0046,T02,LDIAM,25.8,mm,1176,TA21
S0046,T03,LDIAM,28.2,mm,1176,TA21
S0046,,SUMDIAM,75.1,mm,1176,TA21
S0046,T01,LDIAM,21.1,mm,1232,TA22
S0046,T02,LDIAM,25.8,mm,1232,TA22
S0046,T03,LDIAM,28.2,mm,1232,TA22
S0046,,SUMDIAM,75.1,mm,1232,TA22
S0046,T01,LDIAM,21.1,mm,1288,TA23
S0046,T02,LDIAM,25.8,mm,1288,TA23
S0046,T03,LDIAM,28.2,mm,1288,TA23
S0046,,SUMDIAM,75.1,mm,1288,TA23
S0046,T01,LDIAM,21.1,mm,1344,TA24
S0046,T02,LDIAM,25.8,mm,1344,TA24
S0046,T03,LDIAM,28.2,mm,1344,TA24
S0046,,SUMDIAM,75.1,mm,1344,TA24
S0046,T01,LDIAM,21.1,mm,1400,TA25
S0046,T02,LDIAM,25.8,mm,1400,TA25
S0046,T03,LDIAM,28.2,mm,1400,TA25
S0046,,SUMDIAM,75.1,mm,1400,TA25
S0046,T01,LDIAM,21.1,mm,1456,TA26
S0046,T02,LDIAM,25.8,mm,1456,TA26
S0046,T03,LDIAM,28.2,mm,1456,TA26
S0046,,SUMDIAM,75.1,mm,1456,TA26
S0046,T01,LDIAM,21.1,mm,1512,TA27
S0046,T02,LDIAM,25.8,mm,1512,TA27
S0046,T03,LDIAM,28.2,mm,1512,TA27
S0046,,SUMDIAM,75.1,mm,1512,TA27
S0046,T01,LDIAM,21.1,mm,1568,TA28
S0046,T02,LDIAM,25.8,mm,1568,TA28
S0046,T03,LDIAM,28.2,mm,1568,TA28
S0046,,SUMDIAM,75.1,mm,1568,TA28
S0046,T01,LDIAM,21.1,mm,1624,TA29
S0046,T02,LDIAM,25.8,mm,1624,TA29
S0046,T03,LDIAM,28.2,mm,1624,TA29
S0046,,SUMDIAM,75.1,mm,1624,TA29
S0046,T01,LDIAM,21.1,mm,1680,TA30
S0046,T02,LDIAM,25.8,mm,1680,TA30
S0046,T03,LDIAM,28.2,mm,1680,TA30
S0046,,SUMDIAM,75.1,mm,1680,TA30
S0046,T01,LDIAM,21.1,mm,1736,TA31
S0046,T02,LDIAM,25.8,mm,1736,TA31
S0046,T03,LDIAM,28.2,mm,1736,TA31
S0046,,SUMDIAM,75.1,mm,1736,TA31
S0049,T01,LDIAM,40.9,mm,0,BASELINE
S0049,,SUMDIAM,40.9,mm,0,BASELINE
S0049,T01,LDIAM,20.4,mm,56,TA1
S0049,,SUMDIAM,20.4,mm,56,TA1
S0049,T01,LDIAM,0.0,mm,112,TA2
S0049,,SUMDIAM,0.0,mm,112,TA2
S0049,T01,LDIAM,0.0,mm,168,TA3
S0049,,SUMDIAM,0.0,mm,168,TA3
S0049,T01,LDIAM,0.0,mm,224,TA4
S0049,,SUMDIAM,0.0,mm,224,TA4
S0049,T01,LDIAM,0.0,mm,280,TA5
S0049,,SUMDIAM,0.0,mm,280,TA5
S0049,T01,LDIAM,0.0,mm,336,TA6
S0049,,SUMDIAM,0.0,mm,336,TA6
S0049,T01,LDIAM,0.0,mm,392,TA7
S0049,,SUMDIAM,0.0,mm,392,TA7
S0049,T01,LDIAM,0.0,mm,448,TA8
S0049,,SUMDIAM,0.0,mm,448,TA8
S0049,T01,LDIAM,0.0,mm,504,TA9
S0049,,SUMDIAM,0.0,mm,504,TA9
S0049,T01,LDIAM,0.0,mm,560,TA10
S0049,,SUMDIAM,0.0,mm,560,TA10
S0049,T01,LDIAM,0.0,mm,616,TA11
S0049,,SUMDIAM,0.0,mm,616,TA11
S0049,T01,LDIAM,0.0,mm,672,TA12
S0049,,SUMDIAM,0.0,mm,672,TA12
S0049,T01,LDIAM,0.0,mm,728,TA13
S0049,,SUMDIAM,0.0,mm,728,TA13
S0049,T01,LDIAM,0.0,mm,784,TA14
S0049,,SUMDIAM,0.0,mm,784,TA14
S0049,T01,LDIAM,0.0,mm,840,TA15
S0049,,SUMDIAM,0.0,mm,840,TA15
S0049,T01,LDIAM,0.0,mm,896,TA16
S0049,,SUMDIAM,0.0,mm,896,TA16
S0049,T01,LDIAM,0.0,mm,952,TA17
S0049,,SUMDIAM,0.0,mm,952,TA17
S0049,T01,LDIAM,0.0,mm,1008,TA18
S0049,,SUMDIAM,0.0,mm,1008,TA18
S0049,T01,LDIAM,0.0,mm,1064,TA19
S0049,,SUMDIAM,0.0,mm,1064,TA19
S0049,T01,LDIAM,0.0,mm,1120,TA20
S0049,,SUMDIAM,0.0,mm,1120,TA20
S0049,T01,LDIAM,0.0,mm,1176,TA21
S0049,,SUMDIAM,0.0,mm,1176,TA21
S0049,T01,LDIAM,0.0,mm,1232,TA22
S0049,,SUMDIAM,0.0,mm,1232,TA22
S0049,T01,LDIAM,0.0,mm,1288,TA23
S0049,,SUMDIAM,0.0,mm,1288,TA23
S0049,T01,LDIAM,0.0,mm,1344,TA24
S0049,,SUMDIAM,0.0,mm,1344,TA24
S0049,T01,LDIAM,0.0,mm,1400,TA25
S0049,,SUMDIAM,0.0,mm,1400,TA25
S0049,T01,LDIAM,0.0,mm,1456,TA26
S0049,,SUMDIAM,0.0,mm,1456,TA26
S0049,T01,LDIAM,0.0,mm,1512,TA27
S0049,,SUMDIAM,0.0,mm,1512,TA27
S0049,T01,LDIAM,0.0,mm,1568,TA28
S0049,,SUMDIAM,0.0,mm,1568,TA28
S0049,T01,LDIAM,0.0,mm,1624,TA29
S0049,,SUMDIAM,0.0,mm,1624,TA29
S0049,T01,LDIAM,0.0,mm,1680,TA30
S0049,,SUMDIAM,0.0,mm,1680,TA30
S0049,T01,LDIAM,0.0,mm,1736,TA31
S0049,,SUMDIAM,0.0,mm,1736,TA31
S0050,T01,LDIAM,34.9,mm,0,BASELINE
S0050,T02,LDIAM,16.5,mm,0,BASELINE
S0050,,SUMDIAM,51.4,mm,0,BASELINE
S0050,T01,LDIAM,39.4,mm,56,TA1
S0050,T02,LDIAM,18.6,mm,56,TA1
S0050,,SUMDIAM,58.0,mm,56,TA1
S0050,T01,LDIAM,43.8,mm,112,TA2
S0050,T02,LDIAM,20.7,mm,112,TA2
S0050,,SUMDIAM,64.5,mm,112,TA2
S0050,T01,LDIAM,43.8,mm,168,TA3
S0050,T02,LDIAM,20.7,mm,168,TA3
S0050,,SUMDIAM,64.5,mm,168,TA3
S0052,T01,LDIAM,21.7,mm,0,BASELINE
S0052,,SUMDIAM,21.7,mm,0,BASELINE
S0052,T01,LDIAM,21.3,mm,56,TA1
S0052,,SUMDIAM,21.3,mm,56,TA1
S0052,T01,LDIAM,20.9,mm,112,TA2
S0052,,SUMDIAM,20.9,mm,112,TA2
S0052,T01,LDIAM,20.9,mm,168,TA3
S0052,,SUMDIAM,20.9,mm,168,TA3
S0052,T01,LDIAM,20.9,mm,224,TA4
S0052,,SUMDIAM,20.9,mm,224,TA4
S0052,T01,LDIAM,20.9,mm,280,TA5
S0052,,SUMDIAM,20.9,mm,280,TA5
S0052,T01,LDIAM,20.9,mm,336,TA6
S0052,,SUMDIAM,20.9,mm,336,TA6
S0052,T01,LDIAM,20.9,mm,392,TA7
S0052,,SUMDIAM,20.9,mm,392,TA7
S0052,T01,LDIAM,20.9,mm,448,TA8
S0052,,SUMDIAM,20.9,mm,448,TA8
S0052,T01,LDIAM,20.9,mm,504,TA9
S0052,,SUMDIAM,20.9,mm,504,TA9
S0052,T01,LDIAM,20.9,mm,560,TA10
S0052,,SUMDIAM,20.9,mm,560,TA10
S0052,T01,LDIAM,20.9,mm,616,TA11
S0052,,SUMDIAM,20.9,mm,616,TA11
S0052,T01,LDIAM,20.9,mm,672,TA12
S0052,,SUMDIAM,20.9,mm,672,TA12
S0052,T01,LDIAM,20.9,mm,728,TA13
S0052,,SUMDIAM,20.9,mm,728,TA13
S0052,T01,LDIAM,20.9,mm,784,TA14
S0052,,SUMDIAM,20.9,mm,784,TA14
S0052,T01,LDIAM,20.9,mm,840,TA15
S0052,,SUMDIAM,20.9,mm,840,TA15
S0052,T01,LDIAM,20.9,mm,896,TA16
S0052,,SUMDIAM,20.9,mm,896,TA16
S0052,T01,LDIAM,20.9,mm,952,TA17
S0052,,SUMDIAM,20.9,mm,952,TA17
S0052,T01,LDIAM,20.9,mm,1008,TA18
S0052,,SUMDIAM,20.9,mm,1008,TA18
S0052,T01,LDIAM,20.9,mm,1064,TA19
S0052,,SUMDIAM,20.9,mm,1064,TA19
S0052,T01,LDIAM,20.9,mm,1120,TA20
S0052,,SUMDIAM,20.9,mm,1120,TA20
S0052,T01,LDIAM,20.9,mm,1176,TA21
S0052,,SUMDIAM,20.9,mm,1176,TA21
S0052,T01,LDIAM,20.9,mm,1232,TA22
S0052,,SUMDIAM,20.9,mm,1232,TA22
S0052,T01,LDIAM,20.9,mm,1288,TA23
S0052,,SUMDIAM,20.9,mm,1288,TA23
S0052,T01,LDIAM,20.9,mm,1344,TA24
S0052,,SUMDIAM,20.9,mm,1344,TA24
S0052,T01,LDIAM,20.9,mm,1400,TA25
S0052,,SUMDIAM,20.9,mm,1400,TA25
S0052,T01,LDIAM,20.9,mm,1456,TA26
S0052,,SUMDIAM,20.9,mm,1456,TA26
S0052,T01,LDIAM,20.9,mm,1512,TA27
S0052,,SUMDIAM,20.9,mm,1512,TA27
S0052,T01,LDIAM,20.9,mm,1568,TA28
S0052,,SUMDIAM,20.9,mm,1568,TA28
S0052,T01,LDIAM,20.9,mm,1624,TA29
S0052,,SUMDIAM,20.9,mm,1624,TA29
S0052,T01,LDIAM,20.9,mm,1680,TA30
S0052,,SUMDIAM,20.9,mm,1680,TA30
S0052,T01,LDIAM,20.9,mm,1736,TA31
S0052,,SUMDIAM,20.9,mm,1736,TA31
S0054,T01,LDIAM,57.1,mm,0,BASELINE
S0054,T02,LDIAM,59.2,mm,0,BASELINE
S0054,T03,LDIAM,29.0,mm,0,BASELINE
S0054,T04,LDIAM,19.5,mm,0,BASELINE
S0054,,SUMDIAM,164.8,mm,0,BASELINE
S0054,T01,LDIAM,32.0,mm,56,TA1
S0054,T02,LDIAM,33.1,mm,56,TA1
S0054,T03,LDIAM,16.2,mm,56,TA1
S0054,T04,LDIAM,10.9,mm,56,TA1
S0054,,SUMDIAM,92.2,mm,56,TA1
S0054,T01,LDIAM,6.8,mm,112,TA2
S0054,T02,LDIAM,7.1,mm,112,TA2
S0054,T03,LDIAM,3.5,mm,112,TA2
S0054,T04,LDIAM,2.3,mm,112,TA2
S0054,,SUMDIAM,19.7,mm,112,TA2
S0054,T01,LDIAM,6.8,mm,168,TA3
S0054,T02,LDIAM,7.1,mm,168,TA3
S0054,T03,LDIAM,3.5,mm,168,TA3
S0054,T04,LDIAM,2.3,mm,168,TA3
S0054,,SUMDIAM,19.7,mm,168,TA3
S0054,T01,LDIAM,6.8,mm,224,TA4
S0054,T02,LDIAM,7.1,mm,224,TA4
S0054,T03,LDIAM,3.5,mm,224,TA4
S0054,T04,LDIAM,2.3,mm,224,TA4
S0054,,SUMDIAM,19.7,mm,224,TA4
S0054,T01,LDIAM,6.8,mm,280,TA5
S0054,T02,LDIAM,7.1,mm,280,TA5
S0054,T03,LDIAM,3.5,mm,280,TA5
S0054,T04,LDIAM,2.3,mm,280,TA5
S0054,,SUMDIAM,19.7,mm,280,TA5
S0054,T01,LDIAM,6.8,mm,336,TA6
S0054,T02,LDIAM,7.1,mm,336,TA6
S0054,T03,LDIAM,3.5,mm,336,TA6
S0054,T04,LDIAM,2.3,mm,336,TA6
S0054,,SUMDIAM,19.7,mm,336,TA6
S0054,T01,LDIAM,6.8,mm,392,TA7
S0054,T02,LDIAM,7.1,mm,392,TA7
S0054,T03,LDIAM,3.5,mm,392,TA7
S0054,T04,LDIAM,2.3,mm,392,TA7
S0054,,SUMDIAM,19.7,mm,392,TA7
S0054,T01,LDIAM,6.8,mm,448,TA8
S0054,T02,LDIAM,7.1,mm,448,TA8
S0054,T03,LDIAM,3.5,mm,448,TA8
S0054,T04,LDIAM,2.3,mm,448,TA8
S0054,,SUMDIAM,19.7,mm,448,TA8
S0054,T01,LDIAM,6.8,mm,504,TA9
S0054,T02,LDIAM,7.1,mm,504,TA9
S0054,T03,LDIAM,3.5,mm,504,TA9
S0054,T04,LDIAM,2.3,mm,504,TA9
S0054,,SUMDIAM,19.7,mm,504,TA9
S0054,T01,LDIAM,6.8,mm,560,TA10
S0054,T02,LDIAM,7.1,mm,560,TA10
S0054,T03,LDIAM,3.5,mm,560,TA10
S0054,T04,LDIAM,2.3,mm,560,TA10
S0054,,SUMDIAM,19.7,mm,560,TA10
S0054,T01,LDIAM,6.8,mm,616,TA11
S0054,T02,LDIAM,7.1,mm,616,TA11
S0054,T03,LDIAM,3.5,mm,616,TA11
S0054,T04,LDIAM,2.3,mm,616,TA11
S0054,,SUMDIAM,19.7,mm,616,TA11
S0054,T01,LDIAM,6.8,mm,672,TA12
S0054,T02,LDIAM,7.1,mm,672,TA12
S0054,T03,LDIAM,3.5,mm,672,TA12
S0054,T04,LDIAM,2.3,mm,672,TA12
S0054,,SUMDIAM,19.7,mm,672,TA12
S0054,T01,LDIAM,6.8,mm,728,TA13
S0054,T02,LDIAM,7.1,mm,728,TA13
S0054,T03,LDIAM,3.5,mm,728,TA13
S0054,T04,LDIAM,2.3,mm,728,TA13
S0054,,SUMDIAM,19.7,mm,728,TA13
S0054,T01,LDIAM,6.8,mm,784,TA14
S0054,T02,LDIAM,7.1,mm,784,TA14
S0054,T03,LDIAM,3.5,mm,784,TA14
S0054,T04,LDIAM,2.3,mm,784,TA14
S0054,,SUMDIAM,19.7,mm,784,TA14
S0054,T01,LDIAM,6.8,mm,840,TA15
S0054,T02,LDIAM,7.1,mm,840,TA15
S0054,T03,LDIAM,3.5,mm,840,TA15
S0054,T04,LDIAM,2.3,mm,840,TA15
S0054,,SUMDIAM,19.7,mm,840,TA15
S0054,T01,LDIAM,6.8,mm,896,TA16
S0054,T02,LDIAM,7.1,mm,896,TA16
S0054,T03,LDIAM,3.5,mm,896,TA16
S0054,T04,LDIAM,2.3,mm,896,TA16
S0054,,SUMDIAM,19.7,mm,896,TA16
S0054,T01,LDIAM,6.8,mm,952,TA17
S0054,T02,LDIAM,7.1,mm,952,TA17
S0054,T03,LDIAM,3.5,mm,952,TA17
S0054,T04,LDIAM,2.3,mm,952,TA17
S0054,,SUMDIAM,19.7,mm,952,TA17
S0054,T01,LDIAM,6.8,mm,1008,TA18
S0054,T02,LDIAM,7.1,mm,1008,TA18
S0054,T03,LDIAM,3.5,mm,1008,TA18
S0054,T04,LDIAM,2.3,mm,1008,TA18
S0054,,SUMDIAM,19.7,mm,1008,TA18
S0054,T01,LDIAM,6.8,mm,1064,TA19
S0054,T02,LDIAM,7.1,mm,1064,TA19
S0054,T03,LDIAM,3.5,mm,1064,TA19
S0054,T04,LDIAM,2.3,mm,1064,TA19
S0054,,SUMDIAM,19.7,mm,1064,TA19
S0054,T01,LDIAM,6.8,mm,1120,TA20
S0054,T02,LDIAM,7.1,mm,1120,TA20
S0054,T03,LDIAM,3.5,mm,1120,TA20
S0054,T04,LDIAM,2.3,mm,1120,TA20
S0054,,SUMDIAM,19.7,mm,1120,TA20
S0054,T01,LDIAM,6.8,mm,1176,TA21
S0054,T02,LDIAM,7.1,mm,1176,TA21
S0054,T03,LDIAM,3.5,mm,1176,TA21
S0054,T04,LDIAM,2.3,mm,1176,TA21
S0054,,SUMDIAM,19.7,mm,1176,TA21
S0054,T01,LDIAM,6.8,mm,1232,TA22
S0054,T02,LDIAM,7.1,mm,1232,TA22
S0054,T03,LDIAM,3.5,mm,1232,TA22
S0054,T04,LDIAM,2.3,mm,1232,TA22
S0054,,SUMDIAM,19.7,mm,1232,TA22
S0054,T01,LDIAM,6.8,mm,1288,TA23
S0054,T02,LDIAM,7.1,mm,1288,TA23
S0054,T03,LDIAM,3.5,mm,1288,TA23
S0054,T04,LDIAM,2.3,mm,1288,TA23
S0054,,SUMDIAM,19.7,mm,1288,TA23
S0054,T01,LDIAM,6.8,mm,1344,TA24
S0054,T02,LDIAM,7.1,mm,1344,TA24
S0054,T03,LDIAM,3.5,mm,1344,TA24
S0054,T04,LDIAM,2.3,mm,1344,TA24
S0054,,SUMDIAM,19.7,mm,1344,TA24
S0054,T01,LDIAM,6.8,mm,1400,TA25
S0054,T02,LDIAM,7.1,mm,1400,TA25
S0054,T03,LDIAM,3.5,mm,1400,TA25
S0054,T04,LDIAM,2.3,mm,1400,TA25
S0054,,SUMDIAM,19.7,mm,1400,TA25
S0054,T01,LDIAM,6.8,mm,1456,TA26
S0054,T02,LDIAM,7.1,mm,1456,TA26
S0054,T03,LDIAM,3.5,mm,1456,TA26
S0054,T04,LDIAM,2.3,mm,1456,TA26
S0054,,SUMDIAM,19.7,mm,1456,TA26
S0054,T01,LDIAM,6.8,mm,1512,TA27
S0054,T02,LDIAM,7.1,mm,1512,TA27
S0054,T03,LDIAM,3.5,mm,1512,TA27
S0054,T04,LDIAM,2.3,mm,1512,TA27
S0054,,SUMDIAM,19.7,mm,1512,TA27
S0054,T01,LDIAM,6.8,mm,1568,TA28
S0054,T02,LDIAM,7.1,mm,1568,TA28
S0054,T03,LDIAM,3.5,mm,1568,TA28
S0054,T04,LDIAM,2.3,mm,1568,TA28
S0054,,SUMDIAM,19.7,mm,1568,TA28
S0054,T01,LDIAM,6.8,mm,1624,TA29
S0054,T02,LDIAM,7.1,mm,1624,TA29
S0054,T03,LDIAM,3.5,mm,1624,TA29
S0054,T04,LDIAM,2.3,mm,1624,TA29
S0054,,SUMDIAM,19.7,mm,1624,TA29
S0054,T01,LDIAM,6.8,mm,1680,TA30
S0054,T02,LDIAM,7.1,mm,1680,TA30
S0054,T03,LDIAM,3.5,mm,1680,TA30
S0054,T04,LDIAM,2.3,mm,1680,TA30
S0054,,SUMDIAM,19.7,mm,1680,TA30
S0056,T01,LDIAM,56.1,mm,0,BASELINE
S0056,T02,LDIAM,37.2,mm,0,BASELINE
S0056,T03,LDIAM,12.7,mm,0,BASELINE
S0056,T04,LDIAM,22.3,mm,0,BASELINE
S0056,,SUMDIAM,128.3,mm,0,BASELINE
S0056,T01,LDIAM,56.2,mm,56,TA1
S0056,T02,LDIAM,37.3,mm,56,TA1
S0056,T03,LDIAM,12.7,mm,56,TA1
S0056,T04,LDIAM,22.4,mm,56,TA1
S0056,,SUMDIAM,128.6,mm,56,TA1
S0056,T01,LDIAM,56.4,mm,112,TA2
S0056,T02,LDIAM,37.4,mm,112,TA2
S0056,T03,LDIAM,12.8,mm,112,TA2
S0056,T04,LDIAM,22.4,mm,112,TA2
S0056,,SUMDIAM,129.0,mm,112,TA2
S0057,T01,LDIAM,10.4,mm,0,BASELINE
S0057,T02,LDIAM,56.0,mm,0,BASELINE
S0057,T03,LDIAM,13.1,mm,0,BASELINE
S0057,T04,LDIAM,32.4,mm,0,BASELINE
S0057,,SUMDIAM,111.9,mm,0,BASELINE
S0057,T01,LDIAM,9.4,mm,56,TA1
S0057,T02,LDIAM,50.8,mm,56,TA1
S0057,T03,LDIAM,11.9,mm,56,TA1
S0057,T04,LDIAM,29.4,mm,56,TA1
S0057,,SUMDIAM,101.4,mm,56,TA1
S0057,T01,LDIAM,8.5,mm,112,TA2
S0057,T02,LDIAM,45.5,mm,112,TA2
S0057,T03,LDIAM,10.6,mm,112,TA2
S0057,T04,LDIAM,26.3,mm,112,TA2
S0057,,SUMDIAM,90.9,mm,112,TA2
S0057,T01,LDIAM,8.5,mm,168,TA3
S0057,T02,LDIAM,45.5,mm,168,TA3
S0057,T03,LDIAM,10.6,mm,168,TA3
S0057,T04,LDIAM,26.3,mm,168,TA3
S0057,,SUMDIAM,90.9,mm,168,TA3
S0057,T01,LDIAM,8.5,mm,224,TA4
S0057,T02,LDIAM,45.5,mm,224,TA4
S0057,T03,LDIAM,10.6,mm,224,TA4
S0057,T04,LDIAM,26.3,mm,224,TA4
S0057,,SUMDIAM,90.9,mm,224,TA4
S0057,T01,LDIAM,8.5,mm,280,TA5
S0057,T02,LDIAM,45.5,mm,280,TA5
S0057,T03,LDIAM,10.6,mm,280,TA5
S0057,T04,LDIAM,26.3,mm,280,TA5
S0057,,SUMDIAM,90.9,mm,280,TA5
S0057,T01,LDIAM,8.5,mm,336,TA6
S0057,T02,LDIAM,45.5,mm,336,TA6
S0057,T03,LDIAM,10.6,mm,336,TA6
S0057,T04,LDIAM,26.3,mm,336,TA6
S0057,,SUMDIAM,90.9,mm,336,TA6
S0057,T01,LDIAM,8.5,mm,392,TA7
S0057,T02,LDIAM,45.5,mm,392,TA7
S0057,T03,LDIAM,10.6,mm,392,TA7
S0057,T04,LDIAM,26.3,mm,392,TA7
S0057,,SUMDIAM,90.9,mm,392,TA7
S0057,T01,LDIAM,8.5,mm,448,TA8
S0057,T02,LDIAM,45.5,mm,448,TA8
S0057,T03,LDIAM,10.6,mm,448,TA8
S0057,T04,LDIAM,26.3,mm,448,TA8
S0057,,SUMDIAM,90.9,mm,448,TA8
S0057,T01,LDIAM,8.5,mm,504,TA9
S0057,T02,LDIAM,45.5,mm,504,TA9
S0057,T03,LDIAM,10.6,mm,504,TA9
S0057,T04,LDIAM,26.3,mm,504,TA9
S0057,,SUMDIAM,90.9,mm,504,TA9
S0057,T01,LDIAM,8.5,mm,560,TA10
S0057,T02,LDIAM,45.5,mm,560,TA10
S0057,T03,LDIAM,10.6,mm,560,TA10
S0057,T04,LDIAM,26.3,mm,560,TA10
S0057,,SUMDIAM,90.9,mm,560,TA10
S0057,T01,LDIAM,8.5,mm,616,TA11
S0057,T02,LDIAM,45.5,mm,616,TA11
S0057,T03,LDIAM,10.6,mm,616,TA11
S0057,T04,LDIAM,26.3,mm,616,TA11
S0057,,SUMDIAM,90.9,mm,616,TA11
S0057,T01,LDIAM,8.5,mm,672,TA12
S0057,T02,LDIAM,45.5,mm,672,TA12
S0057,T03,LDIAM,10.6,mm,672,TA12
S0057,T04,LDIAM,26.3,mm,672,TA12
S0057,,SUMDIAM,90.9,mm,672,TA12
S0057,T01,LDIAM,8.5,mm,728,TA13
S0057,T02,LDIAM,45.5,mm,728,TA13
S0057,T03,LDIAM,10.6,mm,728,TA13
S0057,T04,LDIAM,26.3,mm,728,TA13
S0057,,SUMDIAM,90.9,mm,728,TA13
S0057,T01,LDIAM,8.5,mm,784,TA14
S0057,T02,LDIAM,45.5,mm,784,TA14
S0057,T03,LDIAM,10.6,mm,784,TA14
S0057,T04,LDIAM,26.3,mm,784,TA14
S0057,,SUMDIAM,90.9,mm,784,TA14
S0057,T01,LDIAM,8.5,mm,840,TA15
S0057,T02,LDIAM,45.5,mm,840,TA15
S0057,T03,LDIAM,10.6,mm,840,TA15
S0057,T04,LDIAM,26.3,mm,840,TA15
S0057,,SUMDIAM,90.9,mm,840,TA15
S0057,T01,LDIAM,8.5,mm,896,TA16
S0057,T02,LDIAM,45.5,mm,896,TA16
S0057,T03,LDIAM,10.6,mm,896,TA16
S0057,T04,LDIAM,26.3,mm,896,TA16
S0057,,SUMDIAM,90.9,mm,896,TA16
S0057,T01,LDIAM,8.5,mm,952,TA17
S0057,T02,LDIAM,45.5,mm,952,TA17
S0057,T03,LDIAM,10.6,mm,952,TA17
S0057,T04,LDIAM,26.3,mm,952,TA17
S0057,,SUMDIAM,90.9,mm,952,TA17
S0057,T01,LDIAM,8.5,mm,1008,TA18
S0057,T02,LDIAM,45.5,mm,1008,TA18
S0057,T03,LDIAM,10.6,mm,1008,TA18
S0057,T04,LDIAM,26.3,mm,1008,TA18
S0057,,SUMDIAM,90.9,mm,1008,TA18
S0057,T01,LDIAM,8.5,mm,1064,TA19
S0057,T02,LDIAM,45.5,mm,1064,TA19
S0057,T03,LDIAM,10.6,mm,1064,TA19
S0057,T04,LDIAM,26.3,mm,1064,TA19
S0057,,SUMDIAM,90.9,mm,1064,TA19
S0057,T01,LDIAM,8.5,mm,1120,TA20
S0057,T02,LDIAM,45.5,mm,1120,TA20
S0057,T03,LDIAM,10.6,mm,1120,TA20
S0057,T04,LDIAM,26.3,mm,1120,TA20
S0057,,SUMDIAM,90.9,mm,1120,TA20
S0057,T01,LDIAM,8.5,mm,1176,TA21
S0057,T02,LDIAM,45.5,mm,1176,TA21
S0057,T03,LDIAM,10.6,mm,1176,TA21
S0057,T04,LDIAM,26.3,mm,1176,TA21
S0057,,SUMDIAM,90.9,mm,1176,TA21
S0057,T01,LDIAM,8.5,mm,1232,TA22
S0057,T02,LDIAM,45.5,mm,1232,TA22
S0057,T03,LDIAM,10.6,mm,1232,TA22
S0057,T04,LDIAM,26.3,mm,1232,TA22
S0057,,SUMDIAM,90.9,mm,1232,TA22
S0057,T01,LDIAM,8.5,mm,1288,TA23
S0057,T02,LDIAM,45.5,mm,1288,TA23
S0057,T03,LDIAM,10.6,mm,1288,TA23
S0057,T04,LDIAM,26.3,mm,1288,TA23
S0057,,SUMDIAM,90.9,mm,1288,TA23
S0057,T01,LDIAM,8.5,mm,1344,TA24
S0057,T02,LDIAM,45.5,mm,1344,TA24
S0057,T03,LDIAM,10.6,mm,1344,TA24
S0057,T04,LDIAM,26.3,mm,1344,TA24
S0057,,SUMDIAM,90.9,mm,1344,TA24
S0057,T01,LDIAM,8.5,mm,1400,TA25
S0057,T02,LDIAM,45.5,mm,1400,TA25
S0057,T03,LDIAM,10.6,mm,1400,TA25
S0057,T04,LDIAM,26.3,mm,1400,TA25
S0057,,SUMDIAM,90.9,mm,1400,TA25
S0057,T01,LDIAM,8.5,mm,1456,TA26
S0057,T02,LDIAM,45.5,mm,1456,TA26
S0057,T03,LDIAM,10.6,mm,1456,TA26
S0057,T04,LDIAM,26.3,mm,1456,TA26
S0057,,SUMDIAM,90.9,mm,1456,TA26
S0057,T01,LDIAM,8.5,mm,1512,TA27
S0057,T02,LDIAM,45.5,mm,1512,TA27
S0057,T03,LDIAM,10.6,mm,1512,TA27
S0057,T04,LDIAM,26.3,mm,1512,TA27
S0057,,SUMDIAM,90.9,mm,1512,TA27
S0057,T01,LDIAM,8.5,mm,1568,TA28
S0057,T02,LDIAM,45.5,mm,1568,TA28
S0057,T03,LDIAM,10.6,mm,1568,TA28
S0057,T04,LDIAM,26.3,mm,1568,TA28
S0057,,SUMDIAM,90.9,mm,1568,TA28
S0057,T01,LDIAM,8.5,mm,1624,TA29
S0057,T02,LDIAM,45.5,mm,1624,TA29
S0057,T03,LDIAM,10.6,mm,1624,TA29
S0057,T04,LDIAM,26.3,mm,1624,TA29
S0057,,SUMDIAM,90.9,mm,1624,TA29
S0057,T01,LDIAM,8.5,mm,1680,TA30
S0057,T02,LDIAM,45.5,mm,1680,TA30
S0057,T03,LDIAM,10.6,mm,1680,TA30
S0057,T04,LDIAM,26.3,mm,1680,TA30
S0057,,SUMDIAM,90.9,mm,1680,TA30
S0058,T01,LDIAM,21.8,mm,0,BASELINE
S0058,T02,LDIAM,47.2,mm,0,BASELINE
S0058,T03,LDIAM,22.7,mm,0,BASELINE
S0058,T04,LDIAM,22.9,mm,0,BASELINE
S0058,,SUMDIAM,114.6,mm,0,BASELINE
S0058,T01,LDIAM,13.1,mm,56,TA1
S0058,T02,LDIAM,28.5,mm,56,TA1
S0058,T03,LDIAM,13.7,mm,56,TA1
S0058,T04,LDIAM,13.8,mm,56,TA1
S0058,,SUMDIAM,69.1,mm,56,TA1
S0058,T01,LDIAM,4.5,mm,112,TA2
S0058,T02,LDIAM,9.7,mm,112,TA2
S0058,T03,LDIAM,4.7,mm,112,TA2
S0058,T04,LDIAM,4.7,mm,112,TA2
S0058,,SUMDIAM,23.6,mm,112,TA2
S0058,T01,LDIAM,4.5,mm,168,TA3
S0058,T02,LDIAM,9.7,mm,168,TA3
S0058,T03,LDIAM,4.7,mm,168,TA3
S0058,T04,LDIAM,4.7,mm,168,TA3
S0058,,SUMDIAM,23.6,mm,168,TA3
S0058,T01,LDIAM,4.5,mm,224,TA4
S0058,T02,LDIAM,9.7,mm,224,TA4
S0058,T03,LDIAM,4.7,mm,224,TA4
S0058,T04,LDIAM,4.7,mm,224,TA4
S0058,,SUMDIAM,23.6,mm,224,TA4
S0058,T01,LDIAM,4.5,mm,280,TA5
S0058,T02,LDIAM,9.7,mm,280,TA5
S0058,T03,LDIAM,4.7,mm,280,TA5
S0058,T04,LDIAM,4.7,mm,280,TA5
S0058,,SUMDIAM,23.6,mm,280,TA5
S0058,T01,LDIAM,4.5,mm,336,TA6
S0058,T02,LDIAM,9.7,mm,336,TA6
S0058,T03,LDIAM,4.7,mm,336,TA6
S0058,T04,LDIAM,4.7,mm,336,TA6
S0058,,SUMDIAM,23.6,mm,336,TA6
S0058,T01,LDIAM,4.5,mm,392,TA7
S0058,T02,LDIAM,9.7,mm,392,TA7
S0058,T03,LDIAM,4.7,mm,392,TA7
S0058,T04,LDIAM,4.7,mm,392,TA7
S0058,,SUMDIAM,23.6,mm,392,TA7
S0058,T01,LDIAM,4.5,mm,448,TA8
S0058,T02,LDIAM,9.7,mm,448,TA8
S0058,T03,LDIAM,4.7,mm,448,TA8
S0058,T04,LDIAM,4.7,mm,448,TA8
S0058,,SUMDIAM,23.6,mm,448,TA8
S0058,T01,LDIAM,4.5,mm,504,TA9
S0058,T02,LDIAM,9.7,mm,504,TA9
S0058,T03,LDIAM,4.7,mm,504,TA9
S0058,T04,LDIAM,4.7,mm,504,TA9
S0058,,SUMDIAM,23.6,mm,504,TA9
S0058,T01,LDIAM,4.5,mm,560,TA10
S0058,T02,LDIAM,9.7,mm,560,TA10
S0058,T03,LDIAM,4.7,mm,560,TA10
S0058,T04,LDIAM,4.7,mm,560,TA10
S0058,,SUMDIAM,23.6,mm,560,TA10
S0058,T01,LDIAM,4.5,mm,616,TA11
S0058,T02,LDIAM,9.7,mm,616,TA11
S0058,T03,LDIAM,4.7,mm,616,TA11
S0058,T04,LDIAM,4.7,mm,616,TA11
S0058,,SUMDIAM,23.6,mm,616,TA11
S0058,T01,LDIAM,4.5,mm,672,TA12
S0058,T02,LDIAM,9.7,mm,672,TA12
S0058,T03,LDIAM,4.7,mm,672,TA12
S0058,T04,LDIAM,4.7,mm,672,TA12
S0058,,SUMDIAM,23.6,mm,672,TA12
S0058,T01,LDIAM,4.5,mm,728,TA13
S0058,T02,LDIAM,9.7,mm,728,TA13
S0058,T03,LDIAM,4.7,mm,728,TA13
S0058,T04,LDIAM,4.7,mm,728,TA13
S0058,,SUMDIAM,23.6,mm,728,TA13
S0058,T01,LDIAM,4.5,mm,784,TA14
S0058,T02,LDIAM,9.7,mm,784,TA14
S0058,T03,LDIAM,4.7,mm,784,TA14
S0058,T04,LDIAM,4.7,mm,784,TA14
S0058,,SUMDIAM,23.6,mm,784,TA14
S0058,T01,LDIAM,4.5,mm,840,TA15
S0058,T02,LDIAM,9.7,mm,840,TA15
S0058,T03,LDIAM,4.7,mm,840,TA15
S0058,T04,LDIAM,4.7,mm,840,TA15
S0058,,SUMDIAM,23.6,mm,840,TA15
S0058,T01,LDIAM,4.5,mm,896,TA16
S0058,T02,LDIAM,9.7,mm,896,TA16
S0058,T03,LDIAM,4.7,mm,896,TA16
S0058,T04,LDIAM,4.7,mm,896,TA16
S0058,,SUMDIAM,23.6,mm,896,TA16
S0059,T01,LDIAM,54.6,mm,0,BASELINE
S0059,T02,LDIAM,40.9,mm,0,BASELINE
S0059,T03,LDIAM,46.4,mm,0,BASELINE
S0059,T04,LDIAM,17.2,mm,0,BASELINE
S0059,T05,LDIAM,24.7,mm,0,BASELINE
S0059,,SUMDIAM,183.8,mm,0,BASELINE
S0060,T01,LDIAM,42.7,mm,0,BASELINE
S0060,T02,LDIAM,20.5,mm,0,BASELINE
S0060,T03,LDIAM,24.3,mm,0,BASELINE
S0060,T04,LDIAM,46.4,mm,0,BASELINE
S0060,,SUMDIAM,133.9,mm,0,BASELINE
S0060,T01,LDIAM,23.8,mm,56,TA1
S0060,T02,LDIAM,11.4,mm,56,TA1
S0060,T03,LDIAM,13.5,mm,56,TA1
S0060,T04,LDIAM,25.9,mm,56,TA1
S0060,,SUMDIAM,74.6,mm,56,TA1
S0060,T01,LDIAM,4.9,mm,112,TA2
S0060,T02,LDIAM,2.4,mm,112,TA2
S0060,T03,LDIAM,2.8,mm,112,TA2
S0060,T04,LDIAM,5.3,mm,112,TA2
S0060,,SUMDIAM,15.4,mm,112,TA2
S0060,T01,LDIAM,4.9,mm,168,TA3
S0060,T02,LDIAM,2.4,mm,168,TA3
S0060,T03,LDIAM,2.8,mm,168,TA3
S0060,T04,LDIAM,5.3,mm,168,TA3
S0060,,SUMDIAM,15.4,mm,168,TA3
S0061,T01,LDIAM,18.6,mm,0,BASELINE
S0061,T02,LDIAM,22.2,mm,0,BASELINE
S0061,,SUMDIAM,40.8,mm,0,BASELINE
S0061,T01,LDIAM,9.3,mm,56,TA1
S0061,T02,LDIAM,11.1,mm,56,TA1
S0061,,SUMDIAM,20.4,mm,56,TA1
S0061,T01,LDIAM,14.0,mm,112,TA2
S0061,T02,LDIAM,16.6,mm,112,TA2
S0061,,SUMDIAM,30.6,mm,112,TA2
S0063,T01,LDIAM,27.9,mm,0,BASELINE
S0063,T02,LDIAM,12.4,mm,0,BASELINE
S0063,T03,LDIAM,14.6,mm,0,BASELINE
S0063,T04,LDIAM,25.6,mm,0,BASELINE
S0063,,SUMDIAM,80.5,mm,0,BASELINE
S0063,T01,LDIAM,21.6,mm,56,TA1
S0063,T02,LDIAM,9.6,mm,56,TA1
S0063,T03,LDIAM,11.3,mm,56,TA1
S0063,T04,LDIAM,19.8,mm,56,TA1
S0063,,SUMDIAM,62.4,mm,56,TA1
S0063,T01,LDIAM,15.3,mm,112,TA2
S0063,T02,LDIAM,6.8,mm,112,TA2
S0063,T03,LDIAM,8.0,mm,112,TA2
S0063,T04,LDIAM,14.1,mm,112,TA2
S0063,,SUMDIAM,44.2,mm,112,TA2
S0063,T01,LDIAM,15.3,mm,168,TA3
S0063,T02,LDIAM,6.8,mm,168,TA3
S0063,T03,LDIAM,8.0,mm,168,TA3
S0063,T04,LDIAM,14.1,mm,168,TA3
S0063,,SUMDIAM,44.2,mm,168,TA3
S0063,T01,LDIAM,15.3,mm,224,TA4
S0063,T02,LDIAM,6.8,mm,224,TA4
S0063,T03,LDIAM,8.0,mm,224,TA4
S0063,T04,LDIAM,14.1,mm,224,TA4
S0063,,SUMDIAM,44.2,mm,224,TA4
S0063,T01,LDIAM,15.3,mm,280,TA5
S0063,T02,LDIAM,6.8,mm,280,TA5
S0063,T03,LDIAM,8.0,mm,280,TA5
S0063,T04,LDIAM,14.1,mm,280,TA5
S0063,,SUMDIAM,44.2,mm,280,TA5
S0063,T01,LDIAM,15.3,mm,336,TA6
S0063,T02,LDIAM,6.8,mm,336,TA6
S0063,T03,LDIAM,8.0,mm,336,TA6
S0063,T04,LDIAM,14.1,mm,336,TA6
S0063,,SUMDIAM,44.2,mm,336,TA6
S0063,T01,LDIAM,15.3,mm,392,TA7
S0063,T02,LDIAM,6.8,mm,392,TA7
S0063,T03,LDIAM,8.0,mm,392,TA7
S0063,T04,LDIAM,14.1,mm,392,TA7
S0063,,SUMDIAM,44.2,mm,392,TA7
S0063,T01,LDIAM,15.3,mm,448,TA8
S0063,T02,LDIAM,6.8,mm,448,TA8
S0063,T03,LDIAM,8.0,mm,448,TA8
S0063,T04,LDIAM,14.1,mm,448,TA8
S0063,,SUMDIAM,44.2,mm,448,TA8
S0063,T01,LDIAM,15.3,mm,504,TA9
S0063,T02,LDIAM,6.8,mm,504,TA9
S0063,T03,LDIAM,8.0,mm,504,TA9
S0063,T04,LDIAM,14.1,mm,504,TA9
S0063,,SUMDIAM,44.2,mm,504,TA9
S0064,T01,LDIAM,35.2,mm,0,BASELINE
S0064,T02,LDIAM,44.4,mm,0,BASELINE
S0064,,SUMDIAM,79.6,mm,0,BASELINE
S0064,T01,LDIAM,29.3,mm,56,TA1
S0064,T02,LDIAM,37.0,mm,56,TA1
S0064,,SUMDIAM,66.4,mm,56,TA1
S0066,T01,LDIAM,41.9,mm,0,BASELINE
S0066,,SUMDIAM,41.9,mm,0,BASELINE
S0066,T01,LDIAM,45.4,mm,56,TA1
S0066,,SUMDIAM,45.4,mm,56,TA1
S0069,T01,LDIAM,49.1,mm,0,BASELINE
S0069,,SUMDIAM,49.1,mm,0,BASELINE
S0072,T01,LDIAM,36.7,mm,0,BASELINE
S0072,T02,LDIAM,31.8,mm,0,BASELINE
S0072,T03,LDIAM,15.3,mm,0,BASELINE
S0072,,SUMDIAM,83.8,mm,0,BASELINE
S0072,T01,LDIAM,28.4,mm,56,TA1
S0072,T02,LDIAM,24.6,mm,56,TA1
S0072,T03,LDIAM,11.8,mm,56,TA1
S0072,,SUMDIAM,64.7,mm,56,TA1
S0072,T01,LDIAM,20.0,mm,112,TA2
S0072,T02,LDIAM,17.3,mm,112,TA2
S0072,T03,LDIAM,8.3,mm,112,TA2
S0072,,SUMDIAM,45.7,mm,112,TA2
S0072,T01,LDIAM,20.0,mm,168,TA3
S0072,T02,LDIAM,17.3,mm,168,TA3
S0072,T03,LDIAM,8.3,mm,168,TA3
S0072,,SUMDIAM,45.7,mm,168,TA3
S0072,T01,LDIAM,20.0,mm,224,TA4
S0072,T02,LDIAM,17.3,mm,224,TA4
S0072,T03,LDIAM,8.3,mm,224,TA4
S0072,,SUMDIAM,45.7,mm,224,TA4
S0072,T01,LDIAM,20.0,mm,280,TA5
S0072,T02,LDIAM,17.3,mm,280,TA5
S0072,T03,LDIAM,8.3,mm,280,TA5
S0072,,SUMDIAM,45.7,mm,280,TA5
S0072,T01,LDIAM,20.0,mm,336,TA6
S0072,T02,LDIAM,17.3,mm,336,TA6
S0072,T03,LDIAM,8.3,mm,336,TA6
S0072,,SUMDIAM,45.7,mm,336,TA6
S0073,T01,LDIAM,33.6,mm,0,BASELINE
S0073,T02,LDIAM,33.5,mm,0,BASELINE
S0073,T03,LDIAM,28.4,mm,0,BASELINE
S0073,,SUMDIAM,95.5,mm,0,BASELINE
S0073,T01,LDIAM,36.3,mm,56,TA1
S0073,T02,LDIAM,36.2,mm,56,TA1
S0073,T03,LDIAM,30.7,mm,56,TA1
S0073,,SUMDIAM,103.3,mm,56,TA1
S0073,T01,LDIAM,39.1,mm,112,TA2
S0073,T02,LDIAM,39.0,mm,112,TA2
S0073,T03,LDIAM,33.0,mm,112,TA2
S0073,,SUMDIAM,111.1,mm,112,TA2
S0073,T01,LDIAM,39.1,mm,168,TA3
S0073,T02,LDIAM,39.0,mm,168,TA3
S0073,T03,LDIAM,33.0,mm,168,TA3
S0073,,SUMDIAM,111.1,mm,168,TA3
S0073,T01,LDIAM,39.1,mm,224,TA4
S0073,T02,LDIAM,39.0,mm,224,TA4
S0073,T03,LDIAM,33.0,mm,224,TA4
S0073,,SUMDIAM,111.1,mm,224,TA4
S0073,T01,LDIAM,39.1,mm,280,TA5
S0073,T02,LDIAM,39.0,mm,280,TA5
S0073,T03,LDIAM,33.0,mm,280,TA5
S0073,,SUMDIAM,111.1,mm,280,TA5
S0073,T01,LDIAM,39.1,mm,336,TA6
S0073,T02,LDIAM,39.0,mm,336,TA6
S0073,T03,LDIAM,33.0,mm,336,TA6
S0073,,SUMDIAM,111.1,mm,336,TA6
S0073,T01,LDIAM,39.1,mm,392,TA7
S0073,T02,LDIAM,39.0,mm,392,TA7
S0073,T03,LDIAM,33.0,mm,392,TA7
S0073,,SUMDIAM,111.1,mm,392,TA7
S0073,T01,LDIAM,39.1,mm,448,TA8
S0073,T02,LDIAM,39.0,mm,448,TA8
S0073,T03,LDIAM,33.0,mm,448,TA8
S0073,,SUMDIAM,111.1,mm,448,TA8
S0073,T01,LDIAM,39.1,mm,504,TA9
S0073,T02,LDIAM,39.0,mm,504,TA9
S0073,T03,LDIAM,33.0,mm,504,TA9
S0073,,SUMDIAM,111.1,mm,504,TA9
S0073,T01,LDIAM,39.1,mm,560,TA10
S0073,T02,LDIAM,39.0,mm,560,TA10
S0073,T03,LDIAM,33.0,mm,560,TA10
S0073,,SUMDIAM,111.1,mm,560,TA10
S0073,T01,LDIAM,39.1,mm,616,TA11
S0073,T02,LDIAM,39.0,mm,616,TA11
S0073,T03,LDIAM,33.0,mm,616,TA11
S0073,,SUMDIAM,111.1,mm,616,TA11
S0073,T01,LDIAM,39.1,mm,672,TA12
S0073,T02,LDIAM,39.0,mm,672,TA12
S0073,T03,LDIAM,33.0,mm,672,TA12
S0073,,SUMDIAM,111.1,mm,672,TA12
S0073,T01,LDIAM,39.1,mm,728,TA13
S0073,T02,LDIAM,39.0,mm,728,TA13
S0073,T03,LDIAM,33.0,mm,728,TA13
S0073,,SUMDIAM,111.1,mm,728,TA13
S0073,T01,LDIAM,39.1,mm,784,TA14
S0073,T02,LDIAM,39.0,mm,784,TA14
S0073,T03,LDIAM,33.0,mm,784,TA14
S0073,,SUMDIAM,111.1,mm,784,TA14
S0073,T01,LDIAM,39.1,mm,840,TA15
S0073,T02,LDIAM,39.0,mm,840,TA15
S0073,T03,LDIAM,33.0,mm,840,TA15
S0073,,SUMDIAM,111.1,mm,840,TA15
S0073,T01,LDIAM,39.1,mm,896,TA16
S0073,T02,LDIAM,39.0,mm,896,TA16
S0073,T03,LDIAM,33.0,mm,896,TA16
S0073,,SUMDIAM,111.1,mm,896,TA16
S0073,T01,LDIAM,39.1,mm,952,TA17
S0073,T02,LDIAM,39.0,mm,952,TA17
S0073,T03,LDIAM,33.0,mm,952,TA17
S0073,,SUMDIAM,111.1,mm,952,TA17
S0073,T01,LDIAM,39.1,mm,1008,TA18
S0073,T02,LDIAM,39.0,mm,1008,TA18
S0073,T03,LDIAM,33.0,mm,1008,TA18
S0073,,SUMDIAM,111.1,mm,1008,TA18
S0073,T01,LDIAM,39.1,mm,1064,TA19
S0073,T02,LDIAM,39.0,mm,1064,TA19
S0073,T03,LDIAM,33.0,mm,1064,TA19
S0073,,SUMDIAM,111.1,mm,1064,TA19
S0073,T01,LDIAM,39.1,mm,1120,TA20
S0073,T02,LDIAM,39.0,mm,1120,TA20
S0073,T03,LDIAM,33.0,mm,1120,TA20
S0073,,SUMDIAM,111.1,mm,1120,TA20
S0073,T01,LDIAM,39.1,mm,1176,TA21
S0073,T02,LDIAM,39.0,mm,1176,TA21
S0073,T03,LDIAM,33.0,mm,1176,TA21
S0073,,SUMDIAM,111.1,mm,1176,TA21
S0073,T01,LDIAM,39.1,mm,1232,TA22
S0073,T02,LDIAM,39.0,mm,1232,TA22
S0073,T03,LDIAM,33.0,mm,1232,TA22
S0073,,SUMDIAM,111.1,mm,1232,TA22
S0073,T01,LDIAM,39.1,mm,1288,TA23
S0073,T02,LDIAM,39.0,mm,1288,TA23
S0073,T03,LDIAM,33.0,mm,1288,TA23
S0073,,SUMDIAM,111.1,mm,1288,TA23
S0073,T01,LDIAM,39.1,mm,1344,TA24
S0073,T02,LDIAM,39.0,mm,1344,TA24
S0073,T03,LDIAM,33.0,mm,1344,TA24
S0073,,SUMDIAM,111.1,mm,1344,TA24
S0073,T01,LDIAM,39.1,mm,1400,TA25
S0073,T02,LDIAM,39.0,mm,1400,TA25
S0073,T03,LDIAM,33.0,mm,1400,TA25
S0073,,SUMDIAM,111.1,mm,1400,TA25
S0073,T01,LDIAM,39.1,mm,1456,TA26
S0073,T02,LDIAM,39.0,mm,1456,TA26
S0073,T03,LDIAM,33.0,mm,1456,TA26
S0073,,SUMDIAM,111.1,mm,1456,TA26
S0073,T01,LDIAM,39.1,mm,1512,TA27
S0073,T02,LDIAM,39.0,mm,1512,TA27
S0073,T03,LDIAM,33.0,mm,1512,TA27
S0073,,SUMDIAM,111.1,mm,1512,TA27
S0073,T01,LDIAM,39.1,mm,1568,TA28
S0073,T02,LDIAM,39.0,mm,1568,TA28
S0073,T03,LDIAM,33.0,mm,1568,TA28
S0073,,SUMDIAM,111.1,mm,1568,TA28
S0073,T01,LDIAM,39.1,mm,1624,TA29
S0073,T02,LDIAM,39.0,mm,1624,TA29
S0073,T03,LDIAM,33.0,mm,1624,TA29
S0073,,SUMDIAM,111.1,mm,1624,TA29
S0073,T01,LDIAM,39.1,mm,1680,TA30
S0073,T02,LDIAM,39.0,mm,1680,TA30
S0073,T03,LDIAM,33.0,mm,1680,TA30
S0073,,SUMDIAM,111.1,mm,1680,TA30
S0074,T01,LDIAM,46.3,mm,0,BASELINE
S0074,T02,LDIAM,19.3,mm,0,BASELINE
S0074,T03,LDIAM,48.1,mm,0,BASELINE
S0074,T04,LDIAM,32.2,mm,0,BASELINE
S0074,T05,LDIAM,23.0,mm,0,BASELINE
S0074,,SUMDIAM,168.9,mm,0,BASELINE
S0074,T01,LDIAM,46.0,mm,56,TA1
S0074,T02,LDIAM,19.2,mm,56,TA1
S0074,T03,LDIAM,47.8,mm,56,TA1
S0074,T04,LDIAM,32.0,mm,56,TA1
S0074,T05,LDIAM,22.8,mm,56,TA1
S0074,,SUMDIAM,167.7,mm,56,TA1
S0074,T01,LDIAM,45.6,mm,112,TA2
S0074,T02,LDIAM,19.0,mm,112,TA2
S0074,T03,LDIAM,47.4,mm,112,TA2
S0074,T04,LDIAM,31.7,mm,112,TA2
S0074,T05,LDIAM,22.7,mm,112,TA2
S0074,,SUMDIAM,166.5,mm,112,TA2
S0074,T01,LDIAM,45.6,mm,168,TA3
S0074,T02,LDIAM,19.0,mm,168,TA3
S0074,T03,LDIAM,47.4,mm,168,TA3
S0074,T04,LDIAM,31.7,mm,168,TA3
S0074,T05,LDIAM,22.7,mm,168,TA3
S0074,,SUMDIAM,166.5,mm,168,TA3
S0074,T01,LDIAM,45.6,mm,224,TA4
S0074,T02,LDIAM,19.0,mm,224,TA4
S0074,T03,LDIAM,47.4,mm,224,TA4
S0074,T04,LDIAM,31.7,mm,224,TA4
S0074,T05,LDIAM,22.7,mm,224,TA4
S0074,,SUMDIAM,166.5,mm,224,TA4
S0074,T01,LDIAM,45.6,mm,280,TA5
S0074,T02,LDIAM,19.0,mm,280,TA5
S0074,T03,LDIAM,47.4,mm,280,TA5
S0074,T04,LDIAM,31.7,mm,280,TA5
S0074,T05,LDIAM,22.7,mm,280,TA5
S0074,,SUMDIAM,166.5,mm,280,TA5
S0074,T01,LDIAM,45.6,mm,336,TA6
S0074,T02,LDIAM,19.0,mm,336,TA6
S0074,T03,LDIAM,47.4,mm,336,TA6
S0074,T04,LDIAM,31.7,mm,336,TA6
S0074,T05,LDIAM,22.7,mm,336,TA6
S0074,,SUMDIAM,166.5,mm,336,TA6
S0074,T01,LDIAM,45.6,mm,392,TA7
S0074,T02,LDIAM,19.0,mm,392,TA7
S0074,T03,LDIAM,47.4,mm,392,TA7
S0074,T04,LDIAM,31.7,mm,392,TA7
S0074,T05,LDIAM,22.7,mm,392,TA7
S0074,,SUMDIAM,166.5,mm,392,TA7
S0074,T01,LDIAM,45.6,mm,448,TA8
S0074,T02,LDIAM,19.0,mm,448,TA8
S0074,T03,LDIAM,47.4,mm,448,TA8
S0074,T04,LDIAM,31.7,mm,448,TA8
S0074,T05,LDIAM,22.7,mm,448,TA8
S0074,,SUMDIAM,166.5,mm,448,TA8
S0074,T01,LDIAM,45.6,mm,504,TA9
S0074,T02,LDIAM,19.0,mm,504,TA9
S0074,T03,LDIAM,47.4,mm,504,TA9
S0074,T04,LDIAM,31.7,mm,504,TA9
S0074,T05,LDIAM,22.7,mm,504,TA9
S0074,,SUMDIAM,166.5,mm,504,TA9
S0074,T01,LDIAM,45.6,mm,560,TA10
S0074,T02,LDIAM,19.0,mm,560,TA10
S0074,T03,LDIAM,47.4,mm,560,TA10
S0074,T04,LDIAM,31.7,mm,560,TA10
S0074,T05,LDIAM,22.7,mm,560,TA10
S0074,,SUMDIAM,166.5,mm,560,TA10
S0077,T01,LDIAM,37.7,mm,0,BASELINE
S0077,,SUMDIAM,37.7,mm,0,BASELINE
S0077,T01,LDIAM,36.7,mm,56,TA1
S0077,,SUMDIAM,36.7,mm,56,TA1
S0081,T01,LDIAM,29.9,mm,0,BASELINE
S0081,T02,LDIAM,42.6,mm,0,BASELINE
S0081,T03,LDIAM,15.9,mm,0,BASELINE
S0081,T04,LDIAM,23.5,mm,0,BASELINE
S0081,T05,LDIAM,40.2,mm,0,BASELINE
S0081,,SUMDIAM,152.1,mm,0,BASELINE
S0081,T01,LDIAM,35.2,mm,56,TA1
S0081,T02,LDIAM,50.2,mm,56,TA1
S0081,T03,LDIAM,18.7,mm,56,TA1
S0081,T04,LDIAM,27.7,mm,56,TA1
S0081,T05,LDIAM,47.4,mm,56,TA1
S0081,,SUMDIAM,179.3,mm,56,TA1
S0081,T01,LDIAM,40.6,mm,112,TA2
S0081,T02,LDIAM,57.8,mm,112,TA2
S0081,T03,LDIAM,21.6,mm,112,TA2
S0081,T04,LDIAM,31.9,mm,112,TA2
S0081,T05,LDIAM,54.6,mm,112,TA2
S0081,,SUMDIAM,206.4,mm,112,TA2
S0081,T01,LDIAM,40.6,mm,168,TA3
S0081,T02,LDIAM,57.8,mm,168,TA3
S0081,T03,LDIAM,21.6,mm,168,TA3
S0081,T04,LDIAM,31.9,mm,168,TA3
S0081,T05,LDIAM,54.6,mm,168,TA3
S0081,,SUMDIAM,206.4,mm,168,TA3
S0081,T01,LDIAM,40.6,mm,224,TA4
S0081,T02,LDIAM,57.8,mm,224,TA4
S0081,T03,LDIAM,21.6,mm,224,TA4
S0081,T04,LDIAM,31.9,mm,224,TA4
S0081,T05,LDIAM,54.6,mm,224,TA4
S0081,,SUMDIAM,206.4,mm,224,TA4
S0081,T01,LDIAM,40.6,mm,280,TA5
S0081,T02,LDIAM,57.8,mm,280,TA5
S0081,T03,LDIAM,21.6,mm,280,TA5
S0081,T04,LDIAM,31.9,mm,280,TA5
S0081,T05,LDIAM,54.6,mm,280,TA5
S0081,,SUMDIAM,206.4,mm,280,TA5
S0081,T01,LDIAM,40.6,mm,336,TA6
S0081,T02,LDIAM,57.8,mm,336,TA6
S0081,T03,LDIAM,21.6,mm,336,TA6
S0081,T04,LDIAM,31.9,mm,336,TA6
S0081,T05,LDIAM,54.6,mm,336,TA6
S0081,,SUMDIAM,206.4,mm,336,TA6
S0081,T01,LDIAM,40.6,mm,392,TA7
S0081,T02,LDIAM,57.8,mm,392,TA7
S0081,T03,LDIAM,21.6,mm,392,TA7
S0081,T04,LDIAM,31.9,mm,392,TA7
S0081,T05,LDIAM,54.6,mm,392,TA7
S0081,,SUMDIAM,206.4,mm,392,TA7
S0081,T01,LDIAM,40.6,mm,448,TA8
S0081,T02,LDIAM,57.8,mm,448,TA8
S0081,T03,LDIAM,21.6,mm,448,TA8
S0081,T04,LDIAM,31.9,mm,448,TA8
S0081,T05,LDIAM,54.6,mm,448,TA8
S0081,,SUMDIAM,206.4,mm,448,TA8
S0081,T01,LDIAM,40.6,mm,504,TA9
S0081,T02,LDIAM,57.8,mm,504,TA9
S0081,T03,LDIAM,21.6,mm,504,TA9
S0081,T04,LDIAM,31.9,mm,504,TA9
S0081,T05,LDIAM,54.6,mm,504,TA9
S0081,,SUMDIAM,206.4,mm,504,TA9
S0081,T01,LDIAM,40.6,mm,560,TA10
S0081,T02,LDIAM,57.8,mm,560,TA10
S0081,T03,LDIAM,21.6,mm,560,TA10
S0081,T04,LDIAM,31.9,mm,560,TA10
S0081,T05,LDIAM,54.6,mm,560,TA10
S0081,,SUMDIAM,206.4,mm,560,TA10
S0081,T01,LDIAM,40.6,mm,616,TA11
S0081,T02,LDIAM,57.8,mm,616,TA11
S0081,T03,LDIAM,21.6,mm,616,TA11
S0081,T04,LDIAM,31.9,mm,616,TA11
S0081,T05,LDIAM,54.6,mm,616,TA11
S0081,,SUMDIAM,206.4,mm,616,TA11
S0081,T01,LDIAM,40.6,mm,672,TA12
S0081,T02,LDIAM,57.8,mm,672,TA12
S0081,T03,LDIAM,21.6,mm,672,TA12
S0081,T04,LDIAM,31.9,mm,672,TA12
S0081,T05,LDIAM,54.6,mm,672,TA12
S0081,,SUMDIAM,206.4,mm,672,TA12
S0081,T01,LDIAM,40.6,mm,728,TA13
S0081,T02,LDIAM,57.8,mm,728,TA13
S0081,T03,LDIAM,21.6,mm,728,TA13
S0081,T04,LDIAM,31.9,mm,728,TA13
S0081,T05,LDIAM,54.6,mm,728,TA13
S0081,,SUMDIAM,206.4,mm,728,TA13
S0081,T01,LDIAM,40.6,mm,784,TA14
S0081,T02,LDIAM,57.8,mm,784,TA14
S0081,T03,LDIAM,21.6,mm,784,TA14
S0081,T04,LDIAM,31.9,mm,784,TA14
S0081,T05,LDIAM,54.6,mm,784,TA14
S0081,,SUMDIAM,206.4,mm,784,TA14
S0081,T01,LDIAM,40.6,mm,840,TA15
S0081,T02,LDIAM,57.8,mm,840,TA15
S0081,T03,LDIAM,21.6,mm,840,TA15
S0081,T04,LDIAM,31.9,mm,840,TA15
S0081,T05,LDIAM,54.6,mm,840,TA15
S0081,,SUMDIAM,206.4,mm,840,TA15
S0081,T01,LDIAM,40.6,mm,896,TA16
S0081,T02,LDIAM,57.8,mm,896,TA16
S0081,T03,LDIAM,21.6,mm,896,TA16
S0081,T04,LDIAM,31.9,mm,896,TA16
S0081,T05,LDIAM,54.6,mm,896,TA16
S0081,,SUMDIAM,206.4,mm,896,TA16
S0081,T01,LDIAM,40.6,mm,952,TA17
S0081,T02,LDIAM,57.8,mm,952,TA17
S0081,T03,LDIAM,21.6,mm,952,TA17
S0081,T04,LDIAM,31.9,mm,952,TA17
S0081,T05,LDIAM,54.6,mm,952,TA17
S0081,,SUMDIAM,206.4,mm,952,TA17
S0081,T01,LDIAM,40.6,mm,1008,TA18
S0081,T02,LDIAM,57.8,mm,1008,TA18
S0081,T03,LDIAM,21.6,mm,1008,TA18
S0081,T04,LDIAM,31.9,mm,1008,TA18
S0081,T05,LDIAM,54.6,mm,1008,TA18
S0081,,SUMDIAM,206.4,mm,1008,TA18
S0081,T01,LDIAM,40.6,mm,1064,TA19
S0081,T02,LDIAM,57.8,mm,1064,TA19
S0081,T03,LDIAM,21.6,mm,1064,TA19
S0081,T04,LDIAM,31.9,mm,1064,TA19
S0081,T05,LDIAM,54.6,mm,1064,TA19
S0081,,SUMDIAM,206.4,mm,1064,TA19
S0081,T01,LDIAM,40.6,mm,1120,TA20
S0081,T02,LDIAM,57.8,mm,1120,TA20
S0081,T03,LDIAM,21.6,mm,1120,TA20
S0081,T04,LDIAM,31.9,mm,1120,TA20
S0081,T05,LDIAM,54.6,mm,1120,TA20
S0081,,SUMDIAM,206.4,mm,1120,TA20
S0081,T01,LDIAM,40.6,mm,1176,TA21
S0081,T02,LDIAM,57.8,mm,1176,TA21
S0081,T03,LDIAM,21.6,mm,1176,TA21
S0081,T04,LDIAM,31.9,mm,1176,TA21
S0081,T05,LDIAM,54.6,mm,1176,TA21
S0081,,SUMDIAM,206.4,mm,1176,TA21
S0081,T01,LDIAM,40.6,mm,1232,TA22
S0081,T02,LDIAM,57.8,mm,1232,TA22
S0081,T03,LDIAM,21.6,mm,1232,TA22
S0081,T04,LDIAM,31.9,mm,1232,TA22
S0081,T05,LDIAM,54.6,mm,1232,TA22
S0081,,SUMDIAM,206.4,mm,1232,TA22
S0081,T01,LDIAM,40.6,mm,1288,TA23
S0081,T02,LDIAM,57.8,mm,1288,TA23
S0081,T03,LDIAM,21.6,mm,1288,TA23
S0081,T04,LDIAM,31.9,mm,1288,TA23
S0081,T05,LDIAM,54.6,mm,1288,TA23
S0081,,SUMDIAM,206.4,mm,1288,TA23
S0081,T01,LDIAM,40.6,mm,1344,TA24
S0081,T02,LDIAM,57.8,mm,1344,TA24
S0081,T03,LDIAM,21.6,mm,1344,TA24
S0081,T04,LDIAM,31.9,mm,1344,TA24
S0081,T05,LDIAM,54.6,mm,1344,TA24
S0081,,SUMDIAM,206.4,mm,1344,TA24
S0081,T01,LDIAM,40.6,mm,1400,TA25
S0081,T02,LDIAM,57.8,mm,1400,TA25
S0081,T03,LDIAM,21.6,mm,1400,TA25
S0081,T04,LDIAM,31.9,mm,1400,TA25
S0081,T05,LDIAM,54.6,mm,1400,TA25
S0081,,SUMDIAM,206.4,mm,1400,TA25
S0081,T01,LDIAM,40.6,mm,1456,TA26
S0081,T02,LDIAM,57.8,mm,1456,TA26
S0081,T03,LDIAM,21.6,mm,1456,TA26
S0081,T04,LDIAM,31.9,mm,1456,TA26
S0081,T05,LDIAM,54.6,mm,1456,TA26
S0081,,SUMDIAM,206.4,mm,1456,TA26
S0081,T01,LDIAM,40.6,mm,1512,TA27
S0081,T02,LDIAM,57.8,mm,1512,TA27
S0081,T03,LDIAM,21.6,mm,1512,TA27
S0081,T04,LDIAM,31.9,mm,1512,TA27
S0081,T05,LDIAM,54.6,mm,1512,TA27
S0081,,SUMDIAM,206.4,mm,1512,TA27
S0081,T01,LDIAM,40.6,mm,1568,TA28
S0081,T02,LDIAM,57.8,mm,1568,TA28
S0081,T03,LDIAM,21.6,mm,1568,TA28
S0081,T04,LDIAM,31.9,mm,1568,TA28
S0081,T05,LDIAM,54.6,mm,1568,TA28
S0081,,SUMDIAM,206.4,mm,1568,TA28
S0081,T01,LDIAM,40.6,mm,1624,TA29
S0081,T02,LDIAM,57.8,mm,1624,TA29
S0081,T03,LDIAM,21.6,mm,1624,TA29
S0081,T04,LDIAM,31.9,mm,1624,TA29
S0081,T05,LDIAM,54.6,mm,1624,TA29
S0081,,SUMDIAM,206.4,mm,1624,TA29
S0083,T01,LDIAM,30.0,mm,0,BASELINE
S0083,T02,LDIAM,43.8,mm,0,BASELINE
S0083,T03,LDIAM,57.4,mm,0,BASELINE
S0083,T04,LDIAM,30.0,mm,0,BASELINE
S0083,T05,LDIAM,55.7,mm,0,BASELINE
S0083,,SUMDIAM,216.9,mm,0,BASELINE
S0083,T01,LDIAM,15.0,mm,56,TA1
S0083,T02,LDIAM,21.9,mm,56,TA1
S0083,T03,LDIAM,28.7,mm,56,TA1
S0083,T04,LDIAM,15.0,mm,56,TA1
S0083,T05,LDIAM,27.9,mm,56,TA1
S0083,,SUMDIAM,108.4,mm,56,TA1
S0083,T01,LDIAM,0.0,mm,112,TA2
S0083,T02,LDIAM,0.0,mm,112,TA2
S0083,T03,LDIAM,0.0,mm,112,TA2
S0083,T04,LDIAM,0.0,mm,112,TA2
S0083,T05,LDIAM,0.0,mm,112,TA2
S0083,,SUMDIAM,0.0,mm,112,TA2
S0083,T01,LDIAM,0.0,mm,168,TA3
S0083,T02,LDIAM,0.0,mm,168,TA3
S0083,T03,LDIAM,0.0,mm,168,TA3
S0083,T04,LDIAM,0.0,mm,168,TA3
S0083,T05,LDIAM,0.0,mm,168,TA3
S0083,,SUMDIAM,0.0,mm,168,TA3
S0083,T01,LDIAM,0.0,mm,224,TA4
S0083,T02,LDIAM,0.0,mm,224,TA4
S0083,T03,LDIAM,0.0,mm,224,TA4
S0083,T04,LDIAM,0.0,mm,224,TA4
S0083,T05,LDIAM,0.0,mm,224,TA4
S0083,,SUMDIAM,0.0,mm,224,TA4
S0083,T01,LDIAM,0.0,mm,280,TA5
S0083,T02,LDIAM,0.0,mm,280,TA5
S0083,T03,LDIAM,0.0,mm,280,TA5
S0083,T04,LDIAM,0.0,mm,280,TA5
S0083,T05,LDIAM,0.0,mm,280,TA5
S0083,,SUMDIAM,0.0,mm,280,TA5
S0083,T01,LDIAM,0.0,mm,336,TA6
S0083,T02,LDIAM,0.0,mm,336,TA6
S0083,T03,LDIAM,0.0,mm,336,TA6
S0083,T04,LDIAM,0.0,mm,336,TA6
S0083,T05,LDIAM,0.0,mm,336,TA6
S0083,,SUMDIAM,0.0,mm,336,TA6
S0083,T01,LDIAM,0.0,mm,392,TA7
S0083,T02,LDIAM,0.0,mm,392,TA7
S0083,T03,LDIAM,0.0,mm,392,TA7
S0083,T04,LDIAM,0.0,mm,392,TA7
S0083,T05,LDIAM,0.0,mm,392,TA7
S0083,,SUMDIAM,0.0,mm,392,TA7
S0083,T01,LDIAM,0.0,mm,448,TA8
S0083,T02,LDIAM,0.0,mm,448,TA8
S0083,T03,LDIAM,0.0,mm,448,TA8
S0083,T04,LDIAM,0.0,mm,448,TA8
S0083,T05,LDIAM,0.0,mm,448,TA8
S0083,,SUMDIAM,0.0,mm,448,TA8
S0083,T01,LDIAM,0.0,mm,504,TA9
S0083,T02,LDIAM,0.0,mm,504,TA9
S0083,T03,LDIAM,0.0,mm,504,TA9
S0083,T04,LDIAM,0.0,mm,504,TA9
S0083,T05,LDIAM,0.0,mm,504,TA9
S0083,,SUMDIAM,0.0,mm,504,TA9
S0083,T01,LDIAM,0.0,mm,560,TA10
S0083,T02,LDIAM,0.0,mm,560,TA10
S0083,T03,LDIAM,0.0,mm,560,TA10
S0083,T04,LDIAM,0.0,mm,560,TA10
S0083,T05,LDIAM,0.0,mm,560,TA10
S0083,,SUMDIAM,0.0,mm,560,TA10
S0083,T01,LDIAM,0.0,mm,616,TA11
S0083,T02,LDIAM,0.0,mm,616,TA11
S0083,T03,LDIAM,0.0,mm,616,TA11
S0083,T04,LDIAM,0.0,mm,616,TA11
S0083,T05,LDIAM,0.0,mm,616,TA11
S0083,,SUMDIAM,0.0,mm,616,TA11
S0083,T01,LDIAM,0.0,mm,672,TA12
S0083,T02,LDIAM,0.0,mm,672,TA12
S0083,T03,LDIAM,0.0,mm,672,TA12
S0083,T04,LDIAM,0.0,mm,672,TA12
S0083,T05,LDIAM,0.0,mm,672,TA12
S0083,,SUMDIAM,0.0,mm,672,TA12
S0083,T01,LDIAM,0.0,mm,728,TA13
S0083,T02,LDIAM,0.0,mm,728,TA13
S0083,T03,LDIAM,0.0,mm,728,TA13
S0083,T04,LDIAM,0.0,mm,728,TA13
S0083,T05,LDIAM,0.0,mm,728,TA13
S0083,,SUMDIAM,0.0,mm,728,TA13
S0083,T01,LDIAM,0.0,mm,784,TA14
S0083,T02,LDIAM,0.0,mm,784,TA14
S0083,T03,LDIAM,0.0,mm,784,TA14
S0083,T04,LDIAM,0.0,mm,784,TA14
S0083,T05,LDIAM,0.0,mm,784,TA14
S0083,,SUMDIAM,0.0,mm,784,TA14
S0083,T01,LDIAM,0.0,mm,840,TA15
S0083,T02,LDIAM,0.0,mm,840,TA15
S0083,T03,LDIAM,0.0,mm,840,TA15
S0083,T04,LDIAM,0.0,mm,840,TA15
S0083,T05,LDIAM,0.0,mm,840,TA15
S0083,,SUMDIAM,0.0,mm,840,TA15
S0083,T01,LDIAM,0.0,mm,896,TA16
S0083,T02,LDIAM,0.0,mm,896,TA16
S0083,T03,LDIAM,0.0,mm,896,TA16
S0083,T04,LDIAM,0.0,mm,896,TA16
S0083,T05,LDIAM,0.0,mm,896,TA16
S0083,,SUMDIAM,0.0,mm,896,TA16
S0083,T01,LDIAM,0.0,mm,952,TA17
S0083,T02,LDIAM,0.0,mm,952,TA17
S0083,T03,LDIAM,0.0,mm,952,TA17
S0083,T04,LDIAM,0.0,mm,952,TA17
S0083,T05,LDIAM,0.0,mm,952,TA17
S0083,,SUMDIAM,0.0,mm,952,TA17
S0083,T01,LDIAM,0.0,mm,1008,TA18
S0083,T02,LDIAM,0.0,mm,1008,TA18
S0083,T03,LDIAM,0.0,mm,1008,TA18
S0083,T04,LDIAM,0.0,mm,1008,TA18
S0083,T05,LDIAM,0.0,mm,1008,TA18
S0083,,SUMDIAM,0.0,mm,1008,TA18
S0083,T01,LDIAM,0.0,mm,1064,TA19
S0083,T02,LDIAM,0.0,mm,1064,TA19
S0083,T03,LDIAM,0.0,mm,1064,TA19
S0083,T04,LDIAM,0.0,mm,1064,TA19
S0083,T05,LDIAM,0.0,mm,1064,TA19
S0083,,SUMDIAM,0.0,mm,1064,TA19
S0083,T01,LDIAM,0.0,mm,1120,TA20
S0083,T02,LDIAM,0.0,mm,1120,TA20
S0083,T03,LDIAM,0.0,mm,1120,TA20
S0083,T04,LDIAM,0.0,mm,1120,TA20
S0083,T05,LDIAM,0.0,mm,1120,TA20
S0083,,SUMDIAM,0.0,mm,1120,TA20
S0083,T01,LDIAM,0.0,mm,1176,TA21
S0083,T02,LDIAM,0.0,mm,1176,TA21
S0083,T03,LDIAM,0.0,mm,1176,TA21
S0083,T04,LDIAM,0.0,mm,1176,TA21
S0083,T05,LDIAM,0.0,mm,1176,TA21
S0083,,SUMDIAM,0.0,mm,1176,TA21
S0083,T01,LDIAM,0.0,mm,1232,TA22
S0083,T02,LDIAM,0.0,mm,1232,TA22
S0083,T03,LDIAM,0.0,mm,1232,TA22
S0083,T04,LDIAM,0.0,mm,1232,TA22
S0083,T05,LDIAM,0.0,mm,1232,TA22
S0083,,SUMDIAM,0.0,mm,1232,TA22
S0083,T01,LDIAM,0.0,mm,1288,TA23
S0083,T02,LDIAM,0.0,mm,1288,TA23
S0083,T03,LDIAM,0.0,mm,1288,TA23
S0083,T04,LDIAM,0.0,mm,1288,TA23
S0083,T05,LDIAM,0.0,mm,1288,TA23
S0083,,SUMDIAM,0.0,mm,1288,TA23
S0083,T01,LDIAM,0.0,mm,1344,TA24
S0083,T02,LDIAM,0.0,mm,1344,TA24
S0083,T03,LDIAM,0.0,mm,1344,TA24
S0083,T04,LDIAM,0.0,mm,1344,TA24
S0083,T05,LDIAM,0.0,mm,1344,TA24
S0083,,SUMDIAM,0.0,mm,1344,TA24
S0083,T01,LDIAM,0.0,mm,1400,TA25
S0083,T02,LDIAM,0.0,mm,1400,TA25
S0083,T03,LDIAM,0.0,mm,1400,TA25
S0083,T04,LDIAM,0.0,mm,1400,TA25
S0083,T05,LDIAM,0.0,mm,1400,TA25
S0083,,SUMDIAM,0.0,mm,1400,TA25
S0083,T01,LDIAM,0.0,mm,1456,TA26
S0083,T02,LDIAM,0.0,mm,1456,TA26
S0083,T03,LDIAM,0.0,mm,1456,TA26
S0083,T04,LDIAM,0.0,mm,1456,TA26
S0083,T05,LDIAM,0.0,mm,1456,TA26
S0083,,SUMDIAM,0.0,mm,1456,TA26
S0083,T01,LDIAM,0.0,mm,1512,TA27
S0083,T02,LDIAM,0.0,mm,1512,TA27
S0083,T03,LDIAM,0.0,mm,1512,TA27
S0083,T04,LDIAM,0.0,mm,1512,TA27
S0083,T05,LDIAM,0.0,mm,1512,TA27
S0083,,SUMDIAM,0.0,mm,1512,TA27
S0083,T01,LDIAM,0.0,mm,1568,TA28
S0083,T02,LDIAM,0.0,mm,1568,TA28
S0083,T03,LDIAM,0.0,mm,1568,TA28
S0083,T04,LDIAM,0.0,mm,1568,TA28
S0083,T05,LDIAM,0.0,mm,1568,TA28
S0083,,SUMDIAM,0.0,mm,1568,TA28
S0083,T01,LDIAM,0.0,mm,1624,TA29
S0083,T02,LDIAM,0.0,mm,1624,TA29
S0083,T03,LDIAM,0.0,mm,1624,TA29
S0083,T04,LDIAM,0.0,mm,1624,TA29
S0083,T05,LDIAM,0.0,mm,1624,TA29
S0083,,SUMDIAM,0.0,mm,1624,TA29
S0084,T01,LDIAM,26.6,mm,0,BASELINE
S0084,T02,LDIAM,50.5,mm,0,BASELINE
S0084,,SUMDIAM,77.1,mm,0,BASELINE
S0084,T01,LDIAM,23.1,mm,56,TA1
S0084,T02,LDIAM,43.8,mm,56,TA1
S0084,,SUMDIAM,66.9,mm,56,TA1
S0084,T01,LDIAM,19.6,mm,112,TA2
S0084,T02,LDIAM,37.1,mm,112,TA2
S0084,,SUMDIAM,56.7,mm,112,TA2
S0084,T01,LDIAM,19.6,mm,168,TA3
S0084,T02,LDIAM,37.1,mm,168,TA3
S0084,,SUMDIAM,56.7,mm,168,TA3
S0084,T01,LDIAM,19.6,mm,224,TA4
S0084,T02,LDIAM,37.1,mm,224,TA4
S0084,,SUMDIAM,56.7,mm,224,TA4
S0084,T01,LDIAM,19.6,mm,280,TA5
S0084,T02,LDIAM,37.1,mm,280,TA5
S0084,,SUMDIAM,56.7,mm,280,TA5
S0084,T01,LDIAM,19.6,mm,336,TA6
S0084,T02,LDIAM,37.1,mm,336,TA6
S0084,,SUMDIAM,56.7,mm,336,TA6
S0084,T01,LDIAM,19.6,mm,392,TA7
S0084,T02,LDIAM,37.1,mm,392,TA7
S0084,,SUMDIAM,56.7,mm,392,TA7
S0084,T01,LDIAM,19.6,mm,448,TA8
S0084,T02,LDIAM,37.1,mm,448,TA8
S0084,,SUMDIAM,56.7,mm,448,TA8
S0084,T01,LDIAM,19.6,mm,504,TA9
S0084,T02,LDIAM,37.1,mm,504,TA9
S0084,,SUMDIAM,56.7,mm,504,TA9
S0084,T01,LDIAM,19.6,mm,560,TA10
S0084,T02,LDIAM,37.1,mm,560,TA10
S0084,,SUMDIAM,56.7,mm,560,TA10
S0084,T01,LDIAM,19.6,mm,616,TA11
S0084,T02,LDIAM,37.1,mm,616,TA11
S0084,,SUMDIAM,56.7,mm,616,TA11
S0084,T01,LDIAM,19.6,mm,672,TA12
S0084,T02,LDIAM,37.1,mm,672,TA12
S0084,,SUMDIAM,56.7,mm,672,TA12
S0084,T01,LDIAM,19.6,mm,728,TA13
S0084,T02,LDIAM,37.1,mm,728,TA13
S0084,,SUMDIAM,56.7,mm,728,TA13
S0084,T01,LDIAM,19.6,mm,784,TA14
S0084,T02,LDIAM,37.1,mm,784,TA14
S0084,,SUMDIAM,56.7,mm,784,TA14
S0084,T01,LDIAM,28.7,mm,840,TA15
S0084,T02,LDIAM,54.5,mm,840,TA15
S0084,,SUMDIAM,83.2,mm,840,TA15
S0085,T01,LDIAM,25.3,mm,0,BASELINE
S0085,T02,LDIAM,29.1,mm,0,BASELINE
S0085,,SUMDIAM,54.4,mm,0,BASELINE
S0085,T01,LDIAM,14.5,mm,56,TA1
S0085,T02,LDIAM,16.7,mm,56,TA1
S0085,,SUMDIAM,31.3,mm,56,TA1
S0085,T01,LDIAM,3.8,mm,112,TA2
S0085,T02,LDIAM,4.4,mm,112,TA2
S0085,,SUMDIAM,8.1,mm,112,TA2
S0090,T01,LDIAM,34.3,mm,0,BASELINE
S0090,T02,LDIAM,50.3,mm,0,BASELINE
S0090,,SUMDIAM,84.6,mm,0,BASELINE
S0090,T01,LDIAM,39.6,mm,56,TA1
S0090,T02,LDIAM,58.1,mm,56,TA1
S0090,,SUMDIAM,97.6,mm,56,TA1
S0090,T01,LDIAM,44.9,mm,112,TA2
S0090,T02,LDIAM,65.8,mm,112,TA2
S0090,,SUMDIAM,110.7,mm,112,TA2
S0090,T01,LDIAM,44.9,mm,168,TA3
S0090,T02,LDIAM,65.8,mm,168,TA3
S0090,,SUMDIAM,110.7,mm,168,TA3
S0090,T01,LDIAM,44.9,mm,224,TA4
S0090,T02,LDIAM,65.8,mm,224,TA4
S0090,,SUMDIAM,110.7,mm,224,TA4
S0090,T01,LDIAM,44.9,mm,280,TA5
S0090,T02,LDIAM,65.8,mm,280,TA5
S0090,,SUMDIAM,110.7,mm,280,TA5
S0090,T01,LDIAM,49.7,mm,336,TA6
S0090,T02,LDIAM,72.9,mm,336,TA6
S0090,,SUMDIAM,122.7,mm,336,TA6
S0092,T01,LDIAM,39.5,mm,0,BASELINE
S0092,T02,LDIAM,13.7,mm,0,BASELINE
S0092,,SUMDIAM,53.2,mm,0,BASELINE
S0092,T01,LDIAM,30.0,mm,56,TA1
S0092,T02,LDIAM,10.4,mm,56,TA1
S0092,,SUMDIAM,40.4,mm,56,TA1
S0092,T01,LDIAM,20.4,mm,112,TA2
S0092,T02,LDIAM,7.1,mm,112,TA2
S0092,,SUMDIAM,27.5,mm,112,TA2
S0092,T01,LDIAM,20.4,mm,168,TA3
S0092,T02,LDIAM,7.1,mm,168,TA3
S0092,,SUMDIAM,27.5,mm,168,TA3
S0092,T01,LDIAM,20.4,mm,224,TA4
S0092,T02,LDIAM,7.1,mm,224,TA4
S0092,,SUMDIAM,27.5,mm,224,TA4
S0092,T01,LDIAM,20.4,mm,280,TA5
S0092,T02,LDIAM,7.1,mm,280,TA5
S0092,,SUMDIAM,27.5,mm,280,TA5
S0092,T01,LDIAM,20.4,mm,336,TA6
S0092,T02,LDIAM,7.1,mm,336,TA6
S0092,,SUMDIAM,27.5,mm,336,TA6
S0092,T01,LDIAM,20.4,mm,392,TA7
S0092,T02,LDIAM,7.1,mm,392,TA7
S0092,,SUMDIAM,27.5,mm,392,TA7
S0092,T01,LDIAM,20.4,mm,448,TA8
S0092,T02,LDIAM,7.1,mm,448,TA8
S0092,,SUMDIAM,27.5,mm,448,TA8
S0092,T01,LDIAM,20.4,mm,504,TA9
S0092,T02,LDIAM,7.1,mm,504,TA9
S0092,,SUMDIAM,27.5,mm,504,TA9
S0092,T01,LDIAM,20.4,mm,560,TA10
S0092,T02,LDIAM,7.1,mm,560,TA10
S0092,,SUMDIAM,27.5,mm,560,TA10
S0092,T01,LDIAM,20.4,mm,616,TA11
S0092,T02,LDIAM,7.1,mm,616,TA11
S0092,,SUMDIAM,27.5,mm,616,TA11
S0092,T01,LDIAM,20.4,mm,672,TA12
S0092,T02,LDIAM,7.1,mm,672,TA12
S0092,,SUMDIAM,27.5,mm,672,TA12
S0092,T01,LDIAM,20.4,mm,728,TA13
S0092,T02,LDIAM,7.1,mm,728,TA13
S0092,,SUMDIAM,27.5,mm,728,TA13
S0092,T01,LDIAM,20.4,mm,784,TA14
S0092,T02,LDIAM,7.1,mm,784,TA14
S0092,,SUMDIAM,27.5,mm,784,TA14
S0092,T01,LDIAM,20.4,mm,840,TA15
S0092,T02,LDIAM,7.1,mm,840,TA15
S0092,,SUMDIAM,27.5,mm,840,TA15
S0092,T01,LDIAM,20.4,mm,896,TA16
S0092,T02,LDIAM,7.1,mm,896,TA16
S0092,,SUMDIAM,27.5,mm,896,TA16
S0092,T01,LDIAM,20.4,mm,952,TA17
S0092,T02,LDIAM,7.1,mm,952,TA17
S0092,,SUMDIAM,27.5,mm,952,TA17
S0092,T01,LDIAM,20.4,mm,1008,TA18
S0092,T02,LDIAM,7.1,mm,1008,TA18
S0092,,SUMDIAM,27.5,mm,1008,TA18
S0092,T01,LDIAM,20.4,mm,1064,TA19
S0092,T02,LDIAM,7.1,mm,1064,TA19
S0092,,SUMDIAM,27.5,mm,1064,TA19
S0092,T01,LDIAM,20.4,mm,1120,TA20
S0092,T02,LDIAM,7.1,mm,1120,TA20
S0092,,SUMDIAM,27.5,mm,1120,TA20
S0092,T01,LDIAM,20.4,mm,1176,TA21
S0092,T02,LDIAM,7.1,mm,1176,TA21
S0092,,SUMDIAM,27.5,mm,1176,TA21
S0092,T01,LDIAM,20.4,mm,1232,TA22
S0092,T02,LDIAM,7.1,mm,1232,TA22
S0092,,SUMDIAM,27.5,mm,1232,TA22
S0092,T01,LDIAM,20.4,mm,1288,TA23
S0092,T02,LDIAM,7.1,mm,1288,TA23
S0092,,SUMDIAM,27.5,mm,1288,TA23
S0092,T01,LDIAM,20.4,mm,1344,TA24
S0092,T02,LDIAM,7.1,mm,1344,TA24
S0092,,SUMDIAM,27.5,mm,1344,TA24
S0092,T01,LDIAM,20.4,mm,1400,TA25
S0092,T02,LDIAM,7.1,mm,1400,TA25
S0092,,SUMDIAM,27.5,mm,1400,TA25
S0092,T01,LDIAM,20.4,mm,1456,TA26
S0092,T02,LDIAM,7.1,mm,1456,TA26
S0092,,SUMDIAM,27.5,mm,1456,TA26
S0092,T01,LDIAM,20.4,mm,1512,TA27
S0092,T02,LDIAM,7.1,mm,1512,TA27
S0092,,SUMDIAM,27.5,mm,1512,TA27
S0092,T01,LDIAM,20.4,mm,1568,TA28
S0092,T02,LDIAM,7.1,mm,1568,TA28
S0092,,SUMDIAM,27.5,mm,1568,TA28
S0093,T01,LDIAM,26.3,mm,0,BASELINE
S0093,T02,LDIAM,29.0,mm,0,BASELINE
S0093,T03,LDIAM,10.5,mm,0,BASELINE
S0093,T04,LDIAM,18.7,mm,0,BASELINE
S0093,T05,LDIAM,14.4,mm,0,BASELINE
S0093,,SUMDIAM,98.9,mm,0,BASELINE
S0093,T01,LDIAM,19.7,mm,56,TA1
S0093,T02,LDIAM,21.7,mm,56,TA1
S0093,T03,LDIAM,7.9,mm,56,TA1
S0093,T04,LDIAM,14.0,mm,56,TA1
S0093,T05,LDIAM,10.8,mm,56,TA1
S0093,,SUMDIAM,74.2,mm,56,TA1
S0093,T01,LDIAM,13.1,mm,112,TA2
S0093,T02,LDIAM,14.5,mm,112,TA2
S0093,T03,LDIAM,5.2,mm,112,TA2
S0093,T04,LDIAM,9.3,mm,112,TA2
S0093,T05,LDIAM,7.2,mm,112,TA2
S0093,,SUMDIAM,49.4,mm,112,TA2
S0093,T01,LDIAM,13.1,mm,168,TA3
S0093,T02,LDIAM,14.5,mm,168,TA3
S0093,T03,LDIAM,5.2,mm,168,TA3
S0093,T04,LDIAM,9.3,mm,168,TA3
S0093,T05,LDIAM,7.2,mm,168,TA3
S0093,,SUMDIAM,49.4,mm,168,TA3
S0093,T01,LDIAM,13.1,mm,224,TA4
S0093,T02,LDIAM,14.5,mm,224,TA4
S0093,T03,LDIAM,5.2,mm,224,TA4
S0093,T04,LDIAM,9.3,mm,224,TA4
S0093,T05,LDIAM,7.2,mm,224,TA4
S0093,,SUMDIAM,49.4,mm,224,TA4
S0093,T01,LDIAM,13.1,mm,280,TA5
S0093,T02,LDIAM,14.5,mm,280,TA5
S0093,T03,LDIAM,5.2,mm,280,TA5
S0093,T04,LDIAM,9.3,mm,280,TA5
S0093,T05,LDIAM,7.2,mm,280,TA5
S0093,,SUMDIAM,49.4,mm,280,TA5
S0093,T01,LDIAM,13.1,mm,336,TA6
S0093,T02,LDIAM,14.5,mm,336,TA6
S0093,T03,LDIAM,5.2,mm,336,TA6
S0093,T04,LDIAM,9.3,mm,336,TA6
S0093,T05,LDIAM,7.2,mm,336,TA6
S0093,,SUMDIAM,49.4,mm,336,TA6
S0093,T01,LDIAM,13.1,mm,392,TA7
S0093,T02,LDIAM,14.5,mm,392,TA7
S0093,T03,LDIAM,5.2,mm,392,TA7
S0093,T04,LDIAM,9.3,mm,392,TA7
S0093,T05,LDIAM,7.2,mm,392,TA7
S0093,,SUMDIAM,49.4,mm,392,TA7
S0093,T01,LDIAM,13.1,mm,448,TA8
S0093,T02,LDIAM,14.5,mm,448,TA8
S0093,T03,LDIAM,5.2,mm,448,TA8
S0093,T04,LDIAM,9.3,mm,448,TA8
S0093,T05,LDIAM,7.2,mm,448,TA8
S0093,,SUMDIAM,49.4,mm,448,TA8
S0093,T01,LDIAM,13.1,mm,504,TA9
S0093,T02,LDIAM,14.5,mm,504,TA9
S0093,T03,LDIAM,5.2,mm,504,TA9
S0093,T04,LDIAM,9.3,mm,504,TA9
S0093,T05,LDIAM,7.2,mm,504,TA9
S0093,,SUMDIAM,49.4,mm,504,TA9
S0093,T01,LDIAM,13.1,mm,560,TA10
S0093,T02,LDIAM,14.5,mm,560,TA10
S0093,T03,LDIAM,5.2,mm,560,TA10
S0093,T04,LDIAM,9.3,mm,560,TA10
S0093,T05,LDIAM,7.2,mm,560,TA10
S0093,,SUMDIAM,49.4,mm,560,TA10
S0093,T01,LDIAM,13.1,mm,616,TA11
S0093,T02,LDIAM,14.5,mm,616,TA11
S0093,T03,LDIAM,5.2,mm,616,TA11
S0093,T04,LDIAM,9.3,mm,616,TA11
S0093,T05,LDIAM,7.2,mm,616,TA11
S0093,,SUMDIAM,49.4,mm,616,TA11
S0093,T01,LDIAM,13.1,mm,672,TA12
S0093,T02,LDIAM,14.5,mm,672,TA12
S0093,T03,LDIAM,5.2,mm,672,TA12
S0093,T04,LDIAM,9.3,mm,672,TA12
S0093,T05,LDIAM,7.2,mm,672,TA12
S0093,,SUMDIAM,49.4,mm,672,TA12
S0093,T01,LDIAM,13.1,mm,728,TA13
S0093,T02,LDIAM,14.5,mm,728,TA13
S0093,T03,LDIAM,5.2,mm,728,TA13
S0093,T04,LDIAM,9.3,mm,728,TA13
S0093,T05,LDIAM,7.2,mm,728,TA13
S0093,,SUMDIAM,49.4,mm,728,TA13
S0093,T01,LDIAM,13.1,mm,784,TA14
S0093,T02,LDIAM,14.5,mm,784,TA14
S0093,T03,LDIAM,5.2,mm,784,TA14
S0093,T04,LDIAM,9.3,mm,784,TA14
S0093,T05,LDIAM,7.2,mm,784,TA14
S0093,,SUMDIAM,49.4,mm,784,TA14
S0093,T01,LDIAM,13.1,mm,840,TA15
S0093,T02,LDIAM,14.5,mm,840,TA15
S0093,T03,LDIAM,5.2,mm,840,TA15
S0093,T04,LDIAM,9.3,mm,840,TA15
S0093,T05,LDIAM,7.2,mm,840,TA15
S0093,,SUMDIAM,49.4,mm,840,TA15
S0093,T01,LDIAM,13.1,mm,896,TA16
S0093,T02,LDIAM,14.5,mm,896,TA16
S0093,T03,LDIAM,5.2,mm,896,TA16
S0093,T04,LDIAM,9.3,mm,896,TA16
S0093,T05,LDIAM,7.2,mm,896,TA16
S0093,,SUMDIAM,49.4,mm,896,TA16
S0093,T01,LDIAM,13.1,mm,952,TA17
S0093,T02,LDIAM,14.5,mm,952,TA17
S0093,T03,LDIAM,5.2,mm,952,TA17
S0093,T04,LDIAM,9.3,mm,952,TA17
S0093,T05,LDIAM,7.2,mm,952,TA17
S0093,,SUMDIAM,49.4,mm,952,TA17
S0093,T01,LDIAM,13.1,mm,1008,TA18
S0093,T02,LDIAM,14.5,mm,1008,TA18
S0093,T03,LDIAM,5.2,mm,1008,TA18
S0093,T04,LDIAM,9.3,mm,1008,TA18
S0093,T05,LDIAM,7.2,mm,1008,TA18
S0093,,SUMDIAM,49.4,mm,1008,TA18
S0093,T01,LDIAM,13.1,mm,1064,TA19
S0093,T02,LDIAM,14.5,mm,1064,TA19
S0093,T03,LDIAM,5.2,mm,1064,TA19
S0093,T04,LDIAM,9.3,mm,1064,TA19
S0093,T05,LDIAM,7.2,mm,1064,TA19
S0093,,SUMDIAM,49.4,mm,1064,TA19
S0093,T01,LDIAM,13.1,mm,1120,TA20
S0093,T02,LDIAM,14.5,mm,1120,TA20
S0093,T03,LDIAM,5.2,mm,1120,TA20
S0093,T04,LDIAM,9.3,mm,1120,TA20
S0093,T05,LDIAM,7.2,mm,1120,TA20
S0093,,SUMDIAM,49.4,mm,1120,TA20
S0093,T01,LDIAM,13.1,mm,1176,TA21
S0093,T02,LDIAM,14.5,mm,1176,TA21
S0093,T03,LDIAM,5.2,mm,1176,TA21
S0093,T04,LDIAM,9.3,mm,1176,TA21
S0093,T05,LDIAM,7.2,mm,1176,TA21
S0093,,SUMDIAM,49.4,mm,1176,TA21
S0093,T01,LDIAM,13.1,mm,1232,TA22
S0093,T02,LDIAM,14.5,mm,1232,TA22
S0093,T03,LDIAM,5.2,mm,1232,TA22
S0093,T04,LDIAM,9.3,mm,1232,TA22
S0093,T05,LDIAM,7.2,mm,1232,TA22
S0093,,SUMDIAM,49.4,mm,1232,TA22
S0093,T01,LDIAM,13.1,mm,1288,TA23
S0093,T02,LDIAM,14.5,mm,1288,TA23
S0093,T03,LDIAM,5.2,mm,1288,TA23
S0093,T04,LDIAM,9.3,mm,1288,TA23
S0093,T05,LDIAM,7.2,mm,1288,TA23
S0093,,SUMDIAM,49.4,mm,1288,TA23
S0093,T01,LDIAM,13.1,mm,1344,TA24
S0093,T02,LDIAM,14.5,mm,1344,TA24
S0093,T03,LDIAM,5.2,mm,1344,TA24
S0093,T04,LDIAM,9.3,mm,1344,TA24
S0093,T05,LDIAM,7.2,mm,1344,TA24
S0093,,SUMDIAM,49.4,mm,1344,TA24
S0093,T01,LDIAM,13.1,mm,1400,TA25
S0093,T02,LDIAM,14.5,mm,1400,TA25
S0093,T03,LDIAM,5.2,mm,1400,TA25
S0093,T04,LDIAM,9.3,mm,1400,TA25
S0093,T05,LDIAM,7.2,mm,1400,TA25
S0093,,SUMDIAM,49.4,mm,1400,TA25
S0093,T01,LDIAM,13.1,mm,1456,TA26
S0093,T02,LDIAM,14.5,mm,1456,TA26
S0093,T03,LDIAM,5.2,mm,1456,TA26
S0093,T04,LDIAM,9.3,mm,1456,TA26
S0093,T05,LDIAM,7.2,mm,1456,TA26
S0093,,SUMDIAM,49.4,mm,1456,TA26
S0093,T01,LDIAM,13.1,mm,1512,TA27
S0093,T02,LDIAM,14.5,mm,1512,TA27
S0093,T03,LDIAM,5.2,mm,1512,TA27
S0093,T04,LDIAM,9.3,mm,1512,TA27
S0093,T05,LDIAM,7.2,mm,1512,TA27
S0093,,SUMDIAM,49.4,mm,1512,TA27
S0093,T01,LDIAM,13.1,mm,1568,TA28
S0093,T02,LDIAM,14.5,mm,1568,TA28
S0093,T03,LDIAM,5.2,mm,1568,TA28
S0093,T04,LDIAM,9.3,mm,1568,TA28
S0093,T05,LDIAM,7.2,mm,1568,TA28
S0093,,SUMDIAM,49.4,mm,1568,TA28
S0095,T01,LDIAM,42.3,mm,0,BASELINE
S0095,T02,LDIAM,16.4,mm,0,BASELINE
S0095,T03,LDIAM,24.0,mm,0,BASELINE
S0095,T04,LDIAM,30.2,mm,0,BASELINE
S0095,,SUMDIAM,112.9,mm,0,BASELINE
S0095,T01,LDIAM,24.9,mm,56,TA1
S0095,T02,LDIAM,9.7,mm,56,TA1
S0095,T03,LDIAM,14.1,mm,56,TA1
S0095,T04,LDIAM,17.8,mm,56,TA1
S0095,,SUMDIAM,66.5,mm,56,TA1
S0095,T01,LDIAM,7.5,mm,112,TA2
S0095,T02,LDIAM,2.9,mm,112,TA2
S0095,T03,LDIAM,4.3,mm,112,TA2
S0095,T04,LDIAM,5.4,mm,112,TA2
S0095,,SUMDIAM,20.1,mm,112,TA2
S0095,T01,LDIAM,7.5,mm,168,TA3
S0095,T02,LDIAM,2.9,mm,168,TA3
S0095,T03,LDIAM,4.3,mm,168,TA3
S0095,T04,LDIAM,5.4,mm,168,TA3
S0095,,SUMDIAM,20.1,mm,168,TA3
S0095,T01,LDIAM,7.5,mm,224,TA4
S0095,T02,LDIAM,2.9,mm,224,TA4
S0095,T03,LDIAM,4.3,mm,224,TA4
S0095,T04,LDIAM,5.4,mm,224,TA4
S0095,,SUMDIAM,20.1,mm,224,TA4
S0095,T01,LDIAM,7.5,mm,280,TA5
S0095,T02,LDIAM,2.9,mm,280,TA5
S0095,T03,LDIAM,4.3,mm,280,TA5
S0095,T04,LDIAM,5.4,mm,280,TA5
S0095,,SUMDIAM,20.1,mm,280,TA5
S0095,T01,LDIAM,7.5,mm,336,TA6
S0095,T02,LDIAM,2.9,mm,336,TA6
S0095,T03,LDIAM,4.3,mm,336,TA6
S0095,T04,LDIAM,5.4,mm,336,TA6
S0095,,SUMDIAM,20.1,mm,336,TA6
S0095,T01,LDIAM,7.5,mm,392,TA7
S0095,T02,LDIAM,2.9,mm,392,TA7
S0095,T03,LDIAM,4.3,mm,392,TA7
S0095,T04,LDIAM,5.4,mm,392,TA7
S0095,,SUMDIAM,20.1,mm,392,TA7
S0095,T01,LDIAM,7.5,mm,448,TA8
S0095,T02,LDIAM,2.9,mm,448,TA8
S0095,T03,LDIAM,4.3,mm,448,TA8
S0095,T04,LDIAM,5.4,mm,448,TA8
S0095,,SUMDIAM,20.1,mm,448,TA8
S0095,T01,LDIAM,7.5,mm,504,TA9
S0095,T02,LDIAM,2.9,mm,504,TA9
S0095,T03,LDIAM,4.3,mm,504,TA9
S0095,T04,LDIAM,5.4,mm,504,TA9
S0095,,SUMDIAM,20.1,mm,504,TA9
S0095,T01,LDIAM,7.5,mm,560,TA10
S0095,T02,LDIAM,2.9,mm,560,TA10
S0095,T03,LDIAM,4.3,mm,560,TA10
S0095,T04,LDIAM,5.4,mm,560,TA10
S0095,,SUMDIAM,20.1,mm,560,TA10
S0095,T01,LDIAM,7.5,mm,616,TA11
S0095,T02,LDIAM,2.9,mm,616,TA11
S0095,T03,LDIAM,4.3,mm,616,TA11
S0095,T04,LDIAM,5.4,mm,616,TA11
S0095,,SUMDIAM,20.1,mm,616,TA11
S0095,T01,LDIAM,7.5,mm,672,TA12
S0095,T02,LDIAM,2.9,mm,672,TA12
S0095,T03,LDIAM,4.3,mm,672,TA12
S0095,T04,LDIAM,5.4,mm,672,TA12
S0095,,SUMDIAM,20.1,mm,672,TA12
S0095,T01,LDIAM,7.5,mm,728,TA13
S0095,T02,LDIAM,2.9,mm,728,TA13
S0095,T03,LDIAM,4.3,mm,728,TA13
S0095,T04,LDIAM,5.4,mm,728,TA13
S0095,,SUMDIAM,20.1,mm,728,TA13
S0095,T01,LDIAM,7.5,mm,784,TA14
S0095,T02,LDIAM,2.9,mm,784,TA14
S0095,T03,LDIAM,4.3,mm,784,TA14
S0095,T04,LDIAM,5.4,mm,784,TA14
S0095,,SUMDIAM,20.1,mm,784,TA14
S0095,T01,LDIAM,7.5,mm,840,TA15
S0095,T02,LDIAM,2.9,mm,840,TA15
S0095,T03,LDIAM,4.3,mm,840,TA15
S0095,T04,LDIAM,5.4,mm,840,TA15
S0095,,SUMDIAM,20.1,mm,840,TA15
S0095,T01,LDIAM,7.5,mm,896,TA16
S0095,T02,LDIAM,2.9,mm,896,TA16
S0095,T03,LDIAM,4.3,mm,896,TA16
S0095,T04,LDIAM,5.4,mm,896,TA16
S0095,,SUMDIAM,20.1,mm,896,TA16
S0095,T01,LDIAM,7.5,mm,952,TA17
S0095,T02,LDIAM,2.9,mm,952,TA17
S0095,T03,LDIAM,4.3,mm,952,TA17
S0095,T04,LDIAM,5.4,mm,952,TA17
S0095,,SUMDIAM,20.1,mm,952,TA17
S0095,T01,LDIAM,7.5,mm,1008,TA18
S0095,T02,LDIAM,2.9,mm,1008,TA18
S0095,T03,LDIAM,4.3,mm,1008,TA18
S0095,T04,LDIAM,5.4,mm,1008,TA18
S0095,,SUMDIAM,20.1,mm,1008,TA18
S0095,T01,LDIAM,7.5,mm,1064,TA19
S0095,T02,LDIAM,2.9,mm,1064,TA19
S0095,T03,LDIAM,4.3,mm,1064,TA19
S0095,T04,LDIAM,5.4,mm,1064,TA19
S0095,,SUMDIAM,20.1,mm,1064,TA19
S0095,T01,LDIAM,7.5,mm,1120,TA20
S0095,T02,LDIAM,2.9,mm,1120,TA20
S0095,T03,LDIAM,4.3,mm,1120,TA20
S0095,T04,LDIAM,5.4,mm,1120,TA20
S0095,,SUMDIAM,20.1,mm,1120,TA20
S0095,T01,LDIAM,7.5,mm,1176,TA21
S0095,T02,LDIAM,2.9,mm,1176,TA21
S0095,T03,LDIAM,4.3,mm,1176,TA21
S0095,T04,LDIAM,5.4,mm,1176,TA21
S0095,,SUMDIAM,20.1,mm,1176,TA21
S0095,T01,LDIAM,7.5,mm,1232,TA22
S0095,T02,LDIAM,2.9,mm,1232,TA22
S0095,T03,LDIAM,4.3,mm,1232,TA22
S0095,T04,LDIAM,5.4,mm,1232,TA22
S0095,,SUMDIAM,20.1,mm,1232,TA22
S0095,T01,LDIAM,7.5,mm,1288,TA23
S0095,T02,LDIAM,2.9,mm,1288,TA23
S0095,T03,LDIAM,4.3,mm,1288,TA23
S0095,T04,LDIAM,5.4,mm,1288,TA23
S0095,,SUMDIAM,20.1,mm,1288,TA23
S0095,T01,LDIAM,7.5,mm,1344,TA24
S0095,T02,LDIAM,2.9,mm,1344,TA24
S0095,T03,LDIAM,4.3,mm,1344,TA24
S0095,T04,LDIAM,5.4,mm,1344,TA24
S0095,,SUMDIAM,20.1,mm,1344,TA24
S0095,T01,LDIAM,7.5,mm,1400,TA25
S0095,T02,LDIAM,2.9,mm,1400,TA25
S0095,T03,LDIAM,4.3,mm,1400,TA25
S0095,T04,LDIAM,5.4,mm,1400,TA25
S0095,,SUMDIAM,20.1,mm,1400,TA25
S0095,T01,LDIAM,7.5,mm,1456,TA26
S0095,T02,LDIAM,2.9,mm,1456,TA26
S0095,T03,LDIAM,4.3,mm,1456,TA26
S0095,T04,LDIAM,5.4,mm,1456,TA26
S0095,,SUMDIAM,20.1,mm,1456,TA26
S0095,T01,LDIAM,7.5,mm,1512,TA27
S0095,T02,LDIAM,2.9,mm,1512,TA27
S0095,T03,LDIAM,4.3,mm,1512,TA27
S0095,T04,LDIAM,5.4,mm,1512,TA27
S0095,,SUMDIAM,20.1,mm,1512,TA27
S0095,T01,LDIAM,7.5,mm,1568,TA28
S0095,T02,LDIAM,2.9,mm,1568,TA28
S0095,T03,LDIAM,4.3,mm,1568,TA28
S0095,T04,LDIAM,5.4,mm,1568,TA28
S0095,,SUMDIAM,20.1,mm,1568,TA28
S0097,T01,LDIAM,21.3,mm,0,BASELINE
S0097,,SUMDIAM,21.3,mm,0,BASELINE
S0097,T01,LDIAM,19.8,mm,56,TA1
S0097,,SUMDIAM,19.8,mm,56,TA1
S0097,T01,LDIAM,18.2,mm,112,TA2
S0097,,SUMDIAM,18.2,mm,112,TA2
S0097,T01,LDIAM,18.2,mm,168,TA3
S0097,,SUMDIAM,18.2,mm,168,TA3
S0097,T01,LDIAM,18.2,mm,224,TA4
S0097,,SUMDIAM,18.2,mm,224,TA4
S0097,T01,LDIAM,18.2,mm,280,TA5
S0097,,SUMDIAM,18.2,mm,280,TA5
S0097,T01,LDIAM,18.2,mm,336,TA6
S0097,,SUMDIAM,18.2,mm,336,TA6
S0097,T01,LDIAM,26.5,mm,392,TA7
S0097,,SUMDIAM,26.5,mm,392,TA7
S0100,T01,LDIAM,36.8,mm,0,BASELINE
S0100,,SUMDIAM,36.8,mm,0,BASELINE
S0100,T01,LDIAM,37.2,mm,56,TA1
S0100,,SUMDIAM,37.2,mm,56,TA1
S0100,T01,LDIAM,37.5,mm,112,TA2
S0100,,SUMDIAM,37.5,mm,112,TA2
S0100,T01,LDIAM,37.5,mm,168,TA3
S0100,,SUMDIAM,37.5,mm,168,TA3
S0101,T01,LDIAM,58.0,mm,0,BASELINE
S0101,T02,LDIAM,32.7,mm,0,BASELINE
S0101,,SUMDIAM,90.7,mm,0,BASELINE
S0101,T01,LDIAM,37.9,mm,56,TA1
S0101,T02,LDIAM,21.4,mm,56,TA1
S0101,,SUMDIAM,59.3,mm,56,TA1
S0101,T01,LDIAM,17.8,mm,112,TA2
S0101,T02,LDIAM,10.1,mm,112,TA2
S0101,,SUMDIAM,27.9,mm,112,TA2
S0101,T01,LDIAM,17.8,mm,168,TA3
S0101,T02,LDIAM,10.1,mm,168,TA3
S0101,,SUMDIAM,27.9,mm,168,TA3
S0101,T01,LDIAM,17.8,mm,224,TA4
S0101,T02,LDIAM,10.1,mm,224,TA4
S0101,,SUMDIAM,27.9,mm,224,TA4
S0101,T01,LDIAM,17.8,mm,280,TA5
S0101,T02,LDIAM,10.1,mm,280,TA5
S0101,,SUMDIAM,27.9,mm,280,TA5
S0101,T01,LDIAM,17.8,mm,336,TA6
S0101,T02,LDIAM,10.1,mm,336,TA6
S0101,,SUMDIAM,27.9,mm,336,TA6
S0101,T01,LDIAM,17.8,mm,392,TA7
S0101,T02,LDIAM,10.1,mm,392,TA7
S0101,,SUMDIAM,27.9,mm,392,TA7
S0101,T01,LDIAM,17.8,mm,448,TA8
S0101,T02,LDIAM,10.1,mm,448,TA8
S0101,,SUMDIAM,27.9,mm,448,TA8
S0101,T01,LDIAM,17.8,mm,504,TA9
S0101,T02,LDIAM,10.1,mm,504,TA9
S0101,,SUMDIAM,27.9,mm,504,TA9
S0101,T01,LDIAM,17.8,mm,560,TA10
S0101,T02,LDIAM,10.1,mm,560,TA10
S0101,,SUMDIAM,27.9,mm,560,TA10
S0101,T01,LDIAM,17.8,mm,616,TA11
S0101,T02,LDIAM,10.1,mm,616,TA11
S0101,,SUMDIAM,27.9,mm,616,TA11
S0101,T01,LDIAM,17.8,mm,672,TA12
S0101,T02,LDIAM,10.1,mm,672,TA12
S0101,,SUMDIAM,27.9,mm,672,TA12
S0101,T01,LDIAM,17.8,mm,728,TA13
S0101,T02,LDIAM,10.1,mm,728,TA13
S0101,,SUMDIAM,27.9,mm,728,TA13
S0101,T01,LDIAM,17.8,mm,784,TA14
S0101,T02,LDIAM,10.1,mm,784,TA14
S0101,,SUMDIAM,27.9,mm,784,TA14
S0101,T01,LDIAM,17.8,mm,840,TA15
S0101,T02,LDIAM,10.1,mm,840,TA15
S0101,,SUMDIAM,27.9,mm,840,TA15
S0101,T01,LDIAM,17.8,mm,896,TA16
S0101,T02,LDIAM,10.1,mm,896,TA16
S0101,,SUMDIAM,27.9,mm,896,TA16
S0101,T01,LDIAM,17.8,mm,952,TA17
S0101,T02,LDIAM,10.1,mm,952,TA17
S0101,,SUMDIAM,27.9,mm,952,TA17
S0101,T01,LDIAM,17.8,mm,1008,TA18
S0101,T02,LDIAM,10.1,mm,1008,TA18
S0101,,SUMDIAM,27.9,mm,1008,TA18
S0101,T01,LDIAM,17.8,mm,1064,TA19
S0101,T02,LDIAM,10.1,mm,1064,TA19
S0101,,SUMDIAM,27.9,mm,1064,TA19
S0101,T01,LDIAM,17.8,mm,1120,TA20
S0101,T02,LDIAM,10.1,mm,1120,TA20
S0101,,SUMDIAM,27.9,mm,1120,TA20
S0101,T01,LDIAM,17.8,mm,1176,TA21
S0101,T02,LDIAM,10.1,mm,1176,TA21
S0101,,SUMDIAM,27.9,mm,1176,TA21
S0101,T01,LDIAM,17.8,mm,1232,TA22
S0101,T02,LDIAM,10.1,mm,1232,TA22
S0101,,SUMDIAM,27.9,mm,1232,TA22
S0101,T01,LDIAM,17.8,mm,1288,TA23
S0101,T02,LDIAM,10.1,mm,1288,TA23
S0101,,SUMDIAM,27.9,mm,1288,TA23
S0101,T01,LDIAM,17.8,mm,1344,TA24
S0101,T02,LDIAM,10.1,mm,1344,TA24
S0101,,SUMDIAM,27.9,mm,1344,TA24
S0101,T01,LDIAM,17.8,mm,1400,TA25
S0101,T02,LDIAM,10.1,mm,1400,TA25
S0101,,SUMDIAM,27.9,mm,1400,TA25
S0101,T01,LDIAM,17.8,mm,1456,TA26
S0101,T02,LDIAM,10.1,mm,1456,TA26
S0101,,SUMDIAM,27.9,mm,1456,TA26
S0101,T01,LDIAM,17.8,mm,1512,TA27
S0101,T02,LDIAM,10.1,mm,1512,TA27
S0101,,SUMDIAM,27.9,mm,1512,TA27
S0102,T01,LDIAM,57.7,mm,0,BASELINE
S0102,T02,LDIAM,16.7,mm,0,BASELINE
S0102,T03,LDIAM,11.7,mm,0,BASELINE
S0102,,SUMDIAM,86.1,mm,0,BASELINE
S0102,T01,LDIAM,41.6,mm,56,TA1
S0102,T02,LDIAM,12.0,mm,56,TA1
S0102,T03,LDIAM,8.4,mm,56,TA1
S0102,,SUMDIAM,62.1,mm,56,TA1
S0102,T01,LDIAM,25.5,mm,112,TA2
S0102,T02,LDIAM,7.4,mm,112,TA2
S0102,T03,LDIAM,5.2,mm,112,TA2
S0102,,SUMDIAM,38.1,mm,112,TA2
S0102,T01,LDIAM,25.5,mm,168,TA3
S0102,T02,LDIAM,7.4,mm,168,TA3
S0102,T03,LDIAM,5.2,mm,168,TA3
S0102,,SUMDIAM,38.1,mm,168,TA3
S0102,T01,LDIAM,25.5,mm,224,TA4
S0102,T02,LDIAM,7.4,mm,224,TA4
S0102,T03,LDIAM,5.2,mm,224,TA4
S0102,,SUMDIAM,38.1,mm,224,TA4
S0102,T01,LDIAM,25.5,mm,280,TA5
S0102,T02,LDIAM,7.4,mm,280,TA5
S0102,T03,LDIAM,5.2,mm,280,TA5
S0102,,SUMDIAM,38.1,mm,280,TA5
S0102,T01,LDIAM,25.5,mm,336,TA6
S0102,T02,LDIAM,7.4,mm,336,TA6
S0102,T03,LDIAM,5.2,mm,336,TA6
S0102,,SUMDIAM,38.1,mm,336,TA6
S0102,T01,LDIAM,25.5,mm,392,TA7
S0102,T02,LDIAM,7.4,mm,392,TA7
S0102,T03,LDIAM,5.2,mm,392,TA7
S0102,,SUMDIAM,38.1,mm,392,TA7
S0102,T01,LDIAM,38.6,mm,448,TA8
S0102,T02,LDIAM,11.2,mm,448,TA8
S0102,T03,LDIAM,7.8,mm,448,TA8
S0102,,SUMDIAM,57.6,mm,448,TA8
S0103,T01,LDIAM,51.6,mm,0,BASELINE
S0103,T02,LDIAM,34.3,mm,0,BASELINE
S0103,T03,LDIAM,38.9,mm,0,BASELINE
S0103,,SUMDIAM,124.8,mm,0,BASELINE
S0103,T01,LDIAM,25.8,mm,56,TA1
S0103,T02,LDIAM,17.1,mm,56,TA1
S0103,T03,LDIAM,19.4,mm,56,TA1
S0103,,SUMDIAM,62.4,mm,56,TA1
S0103,T01,LDIAM,0.0,mm,112,TA2
S0103,T02,LDIAM,0.0,mm,112,TA2
S0103,T03,LDIAM,0.0,mm,112,TA2
S0103,,SUMDIAM,0.0,mm,112,TA2
S0103,T01,LDIAM,0.0,mm,168,TA3
S0103,T02,LDIAM,0.0,mm,168,TA3
S0103,T03,LDIAM,0.0,mm,168,TA3
S0103,,SUMDIAM,0.0,mm,168,TA3
S0103,T01,LDIAM,0.0,mm,224,TA4
S0103,T02,LDIAM,0.0,mm,224,TA4
S0103,T03,LDIAM,0.0,mm,224,TA4
S0103,,SUMDIAM,0.0,mm,224,TA4
S0103,T01,LDIAM,0.0,mm,280,TA5
S0103,T02,LDIAM,0.0,mm,280,TA5
S0103,T03,LDIAM,0.0,mm,280,TA5
S0103,,SUMDIAM,0.0,mm,280,TA5
S0103,T01,LDIAM,0.0,mm,336,TA6
S0103,T02,LDIAM,0.0,mm,336,TA6
S0103,T03,LDIAM,0.0,mm,336,TA6
S0103,,SUMDIAM,0.0,mm,336,TA6
S0103,T01,LDIAM,0.0,mm,392,TA7
S0103,T02,LDIAM,0.0,mm,392,TA7
S0103,T03,LDIAM,0.0,mm,392,TA7
S0103,,SUMDIAM,0.0,mm,392,TA7
S0103,T01,LDIAM,0.0,mm,448,TA8
S0103,T02,LDIAM,0.0,mm,448,TA8
S0103,T03,LDIAM,0.0,mm,448,TA8
S0103,,SUMDIAM,0.0,mm,448,TA8
S0103,T01,LDIAM,0.0,mm,504,TA9
S0103,T02,LDIAM,0.0,mm,504,TA9
S0103,T03,LDIAM,0.0,mm,504,TA9
S0103,,SUMDIAM,0.0,mm,504,TA9
S0103,T01,LDIAM,0.0,mm,560,TA10
S0103,T02,LDIAM,0.0,mm,560,TA10
S0103,T03,LDIAM,0.0,mm,560,TA10
S0103,,SUMDIAM,0.0,mm,560,TA10
S0103,T01,LDIAM,0.0,mm,616,TA11
S0103,T02,LDIAM,0.0,mm,616,TA11
S0103,T03,LDIAM,0.0,mm,616,TA11
S0103,,SUMDIAM,0.0,mm,616,TA11
S0103,T01,LDIAM,0.0,mm,672,TA12
S0103,T02,LDIAM,0.0,mm,672,TA12
S0103,T03,LDIAM,0.0,mm,672,TA12
S0103,,SUMDIAM,0.0,mm,672,TA12
S0103,T01,LDIAM,0.0,mm,728,TA13
S0103,T02,LDIAM,0.0,mm,728,TA13
S0103,T03,LDIAM,0.0,mm,728,TA13
S0103,,SUMDIAM,0.0,mm,728,TA13
S0103,T01,LDIAM,0.0,mm,784,TA14
S0103,T02,LDIAM,0.0,mm,784,TA14
S0103,T03,LDIAM,0.0,mm,784,TA14
S0103,,SUMDIAM,0.0,mm,784,TA14
S0103,T01,LDIAM,0.0,mm,840,TA15
S0103,T02,LDIAM,0.0,mm,840,TA15
S0103,T03,LDIAM,0.0,mm,840,TA15
S0103,,SUMDIAM,0.0,mm,840,TA15
S0103,T01,LDIAM,0.0,mm,896,TA16
S0103,T02,LDIAM,0.0,mm,896,TA16
S0103,T03,LDIAM,0.0,mm,896,TA16
S0103,,SUMDIAM,0.0,mm,896,TA16
S0103,T01,LDIAM,0.0,mm,952,TA17
S0103,T02,LDIAM,0.0,mm,952,TA17
S0103,T03,LDIAM,0.0,mm,952,TA17
S0103,,SUMDIAM,0.0,mm,952,TA17
S0103,T01,LDIAM,0.0,mm,1008,TA18
S0103,T02,LDIAM,0.0,mm,1008,TA18
S0103,T03,LDIAM,0.0,mm,1008,TA18
S0103,,SUMDIAM,0.0,mm,1008,TA18
S0103,T01,LDIAM,0.0,mm,1064,TA19
S0103,T02,LDIAM,0.0,mm,1064,TA19
S0103,T03,LDIAM,0.0,mm,1064,TA19
S0103,,SUMDIAM,0.0,mm,1064,TA19
S0103,T01,LDIAM,0.0,mm,1120,TA20
S0103,T02,LDIAM,0.0,mm,1120,TA20
S0103,T03,LDIAM,0.0,mm,1120,TA20
S0103,,SUMDIAM,0.0,mm,1120,TA20
S0103,T01,LDIAM,0.0,mm,1176,TA21
S0103,T02,LDIAM,0.0,mm,1176,TA21
S0103,T03,LDIAM,0.0,mm,1176,TA21
S0103,,SUMDIAM,0.0,mm,1176,TA21
S0103,T01,LDIAM,0.0,mm,1232,TA22
S0103,T02,LDIAM,0.0,mm,1232,TA22
S0103,T03,LDIAM,0.0,mm,1232,TA22
S0103,,SUMDIAM,0.0,mm,1232,TA22
S0103,T01,LDIAM,0.0,mm,1288,TA23
S0103,T02,LDIAM,0.0,mm,1288,TA23
S0103,T03,LDIAM,0.0,mm,1288,TA23
S0103,,SUMDIAM,0.0,mm,1288,TA23
S0103,T01,LDIAM,0.0,mm,1344,TA24
S0103,T02,LDIAM,0.0,mm,1344,TA24
S0103,T03,LDIAM,0.0,mm,1344,TA24
S0103,,SUMDIAM,0.0,mm,1344,TA24
S0103,T01,LDIAM,0.0,mm,1400,TA25
S0103,T02,LDIAM,0.0,mm,1400,TA25
S0103,T03,LDIAM,0.0,mm,1400,TA25
S0103,,SUMDIAM,0.0,mm,1400,TA25
S0103,T01,LDIAM,0.0,mm,1456,TA26
S0103,T02,LDIAM,0.0,mm,1456,TA26
S0103,T03,LDIAM,0.0,mm,1456,TA26
S0103,,SUMDIAM,0.0,mm,1456,TA26
S0103,T01,LDIAM,0.0,mm,1512,TA27
S0103,T02,LDIAM,0.0,mm,1512,TA27
S0103,T03,LDIAM,0.0,mm,1512,TA27
S0103,,SUMDIAM,0.0,mm,1512,TA27
S0104,T01,LDIAM,42.8,mm,0,BASELINE
S0104,T02,LDIAM,19.5,mm,0,BASELINE
S0104,T03,LDIAM,12.7,mm,0,BASELINE
S0104,T04,LDIAM,55.1,mm,0,BASELINE
S0104,T05,LDIAM,29.4,mm,0,BASELINE
S0104,,SUMDIAM,159.5,mm,0,BASELINE
S0104,T01,LDIAM,31.4,mm,56,TA1
S0104,T02,LDIAM,14.3,mm,56,TA1
S0104,T03,LDIAM,9.3,mm,56,TA1
S0104,T04,LDIAM,40.4,mm,56,TA1
S0104,T05,LDIAM,21.6,mm,56,TA1
S0104,,SUMDIAM,117.0,mm,56,TA1
S0104,T01,LDIAM,20.0,mm,112,TA2
S0104,T02,LDIAM,9.1,mm,112,TA2
S0104,T03,LDIAM,5.9,mm,112,TA2
S0104,T04,LDIAM,25.7,mm,112,TA2
S0104,T05,LDIAM,13.7,mm,112,TA2
S0104,,SUMDIAM,74.5,mm,112,TA2
S0104,T01,LDIAM,20.0,mm,168,TA3
S0104,T02,LDIAM,9.1,mm,168,TA3
S0104,T03,LDIAM,5.9,mm,168,TA3
S0104,T04,LDIAM,25.7,mm,168,TA3
S0104,T05,LDIAM,13.7,mm,168,TA3
S0104,,SUMDIAM,74.5,mm,168,TA3
S0104,T01,LDIAM,20.0,mm,224,TA4
S0104,T02,LDIAM,9.1,mm,224,TA4
S0104,T03,LDIAM,5.9,mm,224,TA4
S0104,T04,LDIAM,25.7,mm,224,TA4
S0104,T05,LDIAM,13.7,mm,224,TA4
S0104,,SUMDIAM,74.5,mm,224,TA4
S0104,T01,LDIAM,20.0,mm,280,TA5
S0104,T02,LDIAM,9.1,mm,280,TA5
S0104,T03,LDIAM,5.9,mm,280,TA5
S0104,T04,LDIAM,25.7,mm,280,TA5
S0104,T05,LDIAM,13.7,mm,280,TA5
S0104,,SUMDIAM,74.5,mm,280,TA5
S0104,T01,LDIAM,20.0,mm,336,TA6
S0104,T02,LDIAM,9.1,mm,336,TA6
S0104,T03,LDIAM,5.9,mm,336,TA6
S0104,T04,LDIAM,25.7,mm,336,TA6
S0104,T05,LDIAM,13.7,mm,336,TA6
S0104,,SUMDIAM,74.5,mm,336,TA6
S0104,T01,LDIAM,20.0,mm,392,TA7
S0104,T02,LDIAM,9.1,mm,392,TA7
S0104,T03,LDIAM,5.9,mm,392,TA7
S0104,T04,LDIAM,25.7,mm,392,TA7
S0104,T05,LDIAM,13.7,mm,392,TA7
S0104,,SUMDIAM,74.5,mm,392,TA7
S0104,T01,LDIAM,20.0,mm,448,TA8
S0104,T02,LDIAM,9.1,mm,448,TA8
S0104,T03,LDIAM,5.9,mm,448,TA8
S0104,T04,LDIAM,25.7,mm,448,TA8
S0104,T05,LDIAM,13.7,mm,448,TA8
S0104,,SUMDIAM,74.5,mm,448,TA8
S0104,T01,LDIAM,20.0,mm,504,TA9
S0104,T02,LDIAM,9.1,mm,504,TA9
S0104,T03,LDIAM,5.9,mm,504,TA9
S0104,T04,LDIAM,25.7,mm,504,TA9
S0104,T05,LDIAM,13.7,mm,504,TA9
S0104,,SUMDIAM,74.5,mm,504,TA9
S0104,T01,LDIAM,20.0,mm,560,TA10
S0104,T02,LDIAM,9.1,mm,560,TA10
S0104,T03,LDIAM,5.9,mm,560,TA10
S0104,T04,LDIAM,25.7,mm,560,TA10
S0104,T05,LDIAM,13.7,mm,560,TA10
S0104,,SUMDIAM,74.5,mm,560,TA10
S0104,T01,LDIAM,20.0,mm,616,TA11
S0104,T02,LDIAM,9.1,mm,616,TA11
S0104,T03,LDIAM,5.9,mm,616,TA11
S0104,T04,LDIAM,25.7,mm,616,TA11
S0104,T05,LDIAM,13.7,mm,616,TA11
S0104,,SUMDIAM,74.5,mm,616,TA11
S0105,T01,LDIAM,18.2,mm,0,BASELINE
S0105,T02,LDIAM,15.7,mm,0,BASELINE
S0105,T03,LDIAM,52.0,mm,0,BASELINE
S0105,,SUMDIAM,85.9,mm,0,BASELINE
S0105,T01,LDIAM,11.9,mm,56,TA1
S0105,T02,LDIAM,10.3,mm,56,TA1
S0105,T03,LDIAM,34.1,mm,56,TA1
S0105,,SUMDIAM,56.3,mm,56,TA1
S0105,T01,LDIAM,5.7,mm,112,TA2
S0105,T02,LDIAM,4.9,mm,112,TA2
S0105,T03,LDIAM,16.2,mm,112,TA2
S0105,,SUMDIAM,26.7,mm,112,TA2
S0105,T01,LDIAM,5.7,mm,168,TA3
S0105,T02,LDIAM,4.9,mm,168,TA3
S0105,T03,LDIAM,16.2,mm,168,TA3
S0105,,SUMDIAM,26.7,mm,168,TA3
S0105,T01,LDIAM,5.7,mm,224,TA4
S0105,T02,LDIAM,4.9,mm,224,TA4
S0105,T03,LDIAM,16.2,mm,224,TA4
S0105,,SUMDIAM,26.7,mm,224,TA4
S0105,T01,LDIAM,5.7,mm,280,TA5
S0105,T02,LDIAM,4.9,mm,280,TA5
S0105,T03,LDIAM,16.2,mm,280,TA5
S0105,,SUMDIAM,26.7,mm,280,TA5
S0105,T01,LDIAM,5.7,mm,336,TA6
S0105,T02,LDIAM,4.9,mm,336,TA6
S0105,T03,LDIAM,16.2,mm,336,TA6
S0105,,SUMDIAM,26.7,mm,336,TA6
S0105,T01,LDIAM,5.7,mm,392,TA7
S0105,T02,LDIAM,4.9,mm,392,TA7
S0105,T03,LDIAM,16.2,mm,392,TA7
S0105,,SUMDIAM,26.7,mm,392,TA7
S0105,T01,LDIAM,5.7,mm,448,TA8
S0105,T02,LDIAM,4.9,mm,448,TA8
S0105,T03,LDIAM,16.2,mm,448,TA8
S0105,,SUMDIAM,26.7,mm,448,TA8
S0105,T01,LDIAM,5.7,mm,504,TA9
S0105,T02,LDIAM,4.9,mm,504,TA9
S0105,T03,LDIAM,16.2,mm,504,TA9
S0105,,SUMDIAM,26.7,mm,504,TA9
S0105,T01,LDIAM,5.7,mm,560,TA10
S0105,T02,LDIAM,4.9,mm,560,TA10
S0105,T03,LDIAM,16.2,mm,560,TA10
S0105,,SUMDIAM,26.7,mm,560,TA10
S0105,T01,LDIAM,5.7,mm,616,TA11
S0105,T02,LDIAM,4.9,mm,616,TA11
S0105,T03,LDIAM,16.2,mm,616,TA11
S0105,,SUMDIAM,26.7,mm,616,TA11
S0105,T01,LDIAM,5.7,mm,672,TA12
S0105,T02,LDIAM,4.9,mm,672,TA12
S0105,T03,LDIAM,16.2,mm,672,TA12
S0105,,SUMDIAM,26.7,mm,672,TA12
S0105,T01,LDIAM,5.7,mm,728,TA13
S0105,T02,LDIAM,4.9,mm,728,TA13
S0105,T03,LDIAM,16.2,mm,728,TA13
S0105,,SUMDIAM,26.7,mm,728,TA13
S0105,T01,LDIAM,5.7,mm,784,TA14
S0105,T02,LDIAM,4.9,mm,784,TA14
S0105,T03,LDIAM,16.2,mm,784,TA14
S0105,,SUMDIAM,26.7,mm,784,TA14
S0105,T01,LDIAM,5.7,mm,840,TA15
S0105,T02,LDIAM,4.9,mm,840,TA15
S0105,T03,LDIAM,16.2,mm,840,TA15
S0105,,SUMDIAM,26.7,mm,840,TA15
S0105,T01,LDIAM,5.7,mm,896,TA16
S0105,T02,LDIAM,4.9,mm,896,TA16
S0105,T03,LDIAM,16.2,mm,896,TA16
S0105,,SUMDIAM,26.7,mm,896,TA16
S0105,T01,LDIAM,5.7,mm,952,TA17
S0105,T02,LDIAM,4.9,mm,952,TA17
S0105,T03,LDIAM,16.2,mm,952,TA17
S0105,,SUMDIAM,26.7,mm,952,TA17
S0105,T01,LDIAM,5.7,mm,1008,TA18
S0105,T02,LDIAM,4.9,mm,1008,TA18
S0105,T03,LDIAM,16.2,mm,1008,TA18
S0105,,SUMDIAM,26.7,mm,1008,TA18
S0105,T01,LDIAM,5.7,mm,1064,TA19
S0105,T02,LDIAM,4.9,mm,1064,TA19
S0105,T03,LDIAM,16.2,mm,1064,TA19
S0105,,SUMDIAM,26.7,mm,1064,TA19
S0105,T01,LDIAM,5.7,mm,1120,TA20
S0105,T02,LDIAM,4.9,mm,1120,TA20
S0105,T03,LDIAM,16.2,mm,1120,TA20
S0105,,SUMDIAM,26.7,mm,1120,TA20
S0105,T01,LDIAM,5.7,mm,1176,TA21
S0105,T02,LDIAM,4.9,mm,1176,TA21
S0105,T03,LDIAM,16.2,mm,1176,TA21
S0105,,SUMDIAM,26.7,mm,1176,TA21
S0105,T01,LDIAM,5.7,mm,1232,TA22
S0105,T02,LDIAM,4.9,mm,1232,TA22
S0105,T03,LDIAM,16.2,mm,1232,TA22
S0105,,SUMDIAM,26.7,mm,1232,TA22
S0105,T01,LDIAM,5.7,mm,1288,TA23
S0105,T02,LDIAM,4.9,mm,1288,TA23
S0105,T03,LDIAM,16.2,mm,1288,TA23
S0105,,SUMDIAM,26.7,mm,1288,TA23
S0105,T01,LDIAM,5.7,mm,1344,TA24
S0105,T02,LDIAM,4.9,mm,1344,TA24
S0105,T03,LDIAM,16.2,mm,1344,TA24
S0105,,SUMDIAM,26.7,mm,1344,TA24
S0105,T01,LDIAM,5.7,mm,1400,TA25
S0105,T02,LDIAM,4.9,mm,1400,TA25
S0105,T03,LDIAM,16.2,mm,1400,TA25
S0105,,SUMDIAM,26.7,mm,1400,TA25
S0105,T01,LDIAM,5.7,mm,1456,TA26
S0105,T02,LDIAM,4.9,mm,1456,TA26
S0105,T03,LDIAM,16.2,mm,1456,TA26
S0105,,SUMDIAM,26.7,mm,1456,TA26
S0105,T01,LDIAM,5.7,mm,1512,TA27
S0105,T02,LDIAM,4.9,mm,1512,TA27
S0105,T03,LDIAM,16.2,mm,1512,TA27
S0105,,SUMDIAM,26.7,mm,1512,TA27
S0106,T01,LDIAM,59.5,mm,0,BASELINE
S0106,T02,LDIAM,45.6,mm,0,BASELINE
S0106,T03,LDIAM,11.0,mm,0,BASELINE
S0106,,SUMDIAM,116.1,mm,0,BASELINE
S0106,T01,LDIAM,60.9,mm,56,TA1
S0106,T02,LDIAM,46.7,mm,56,TA1
S0106,T03,LDIAM,11.3,mm,56,TA1
S0106,,SUMDIAM,118.8,mm,56,TA1
S0106,T01,LDIAM,62.3,mm,112,TA2
S0106,T02,LDIAM,47.7,mm,112,TA2
S0106,T03,LDIAM,11.5,mm,112,TA2
S0106,,SUMDIAM,121.5,mm,112,TA2
S0106,T01,LDIAM,62.3,mm,168,TA3
S0106,T02,LDIAM,47.7,mm,168,TA3
S0106,T03,LDIAM,11.5,mm,168,TA3
S0106,,SUMDIAM,121.5,mm,168,TA3
S0106,T01,LDIAM,62.3,mm,224,TA4
S0106,T02,LDIAM,47.7,mm,224,TA4
S0106,T03,LDIAM,11.5,mm,224,TA4
S0106,,SUMDIAM,121.5,mm,224,TA4
S0106,T01,LDIAM,62.3,mm,280,TA5
S0106,T02,LDIAM,47.7,mm,280,TA5
S0106,T03,LDIAM,11.5,mm,280,TA5
S0106,,SUMDIAM,121.5,mm,280,TA5
S0106,T01,LDIAM,62.3,mm,336,TA6
S0106,T02,LDIAM,47.7,mm,336,TA6
S0106,T03,LDIAM,11.5,mm,336,TA6
S0106,,SUMDIAM,121.5,mm,336,TA6
S0106,T01,LDIAM,62.3,mm,392,TA7
S0106,T02,LDIAM,47.7,mm,392,TA7
S0106,T03,LDIAM,11.5,mm,392,TA7
S0106,,SUMDIAM,121.5,mm,392,TA7
S0106,T01,LDIAM,62.3,mm,448,TA8
S0106,T02,LDIAM,47.7,mm,448,TA8
S0106,T03,LDIAM,11.5,mm,448,TA8
S0106,,SUMDIAM,121.5,mm,448,TA8
S0106,T01,LDIAM,62.3,mm,504,TA9
S0106,T02,LDIAM,47.7,mm,504,TA9
S0106,T03,LDIAM,11.5,mm,504,TA9
S0106,,SUMDIAM,121.5,mm,504,TA9
S0106,T01,LDIAM,62.3,mm,560,TA10
S0106,T02,LDIAM,47.7,mm,560,TA10
S0106,T03,LDIAM,11.5,mm,560,TA10
S0106,,SUMDIAM,121.5,mm,560,TA10
S0106,T01,LDIAM,62.3,mm,616,TA11
S0106,T02,LDIAM,47.7,mm,616,TA11
S0106,T03,LDIAM,11.5,mm,616,TA11
S0106,,SUMDIAM,121.5,mm,616,TA11
S0106,T01,LDIAM,62.3,mm,672,TA12
S0106,T02,LDIAM,47.7,mm,672,TA12
S0106,T03,LDIAM,11.5,mm,672,TA12
S0106,,SUMDIAM,121.5,mm,672,TA12
S0106,T01,LDIAM,62.3,mm,728,TA13
S0106,T02,LDIAM,47.7,mm,728,TA13
S0106,T03,LDIAM,11.5,mm,728,TA13
S0106,,SUMDIAM,121.5,mm,728,TA13
S0106,T01,LDIAM,62.3,mm,784,TA14
S0106,T02,LDIAM,47.7,mm,784,TA14
S0106,T03,LDIAM,11.5,mm,784,TA14
S0106,,SUMDIAM,121.5,mm,784,TA14
S0106,T01,LDIAM,62.3,mm,840,TA15
S0106,T02,LDIAM,47.7,mm,840,TA15
S0106,T03,LDIAM,11.5,mm,840,TA15
S0106,,SUMDIAM,121.5,mm,840,TA15
S0106,T01,LDIAM,62.3,mm,896,TA16
S0106,T02,LDIAM,47.7,mm,896,TA16
S0106,T03,LDIAM,11.5,mm,896,TA16
S0106,,SUMDIAM,121.5,mm,896,TA16
S0106,T01,LDIAM,62.3,mm,952,TA17
S0106,T02,LDIAM,47.7,mm,952,TA17
S0106,T03,LDIAM,11.5,mm,952,TA17
S0106,,SUMDIAM,121.5,mm,952,TA17
S0106,T01,LDIAM,62.3,mm,1008,TA18
S0106,T02,LDIAM,47.7,mm,1008,TA18
S0106,T03,LDIAM,11.5,mm,1008,TA18
S0106,,SUMDIAM,121.5,mm,1008,TA18
S0106,T01,LDIAM,62.3,mm,1064,TA19
S0106,T02,LDIAM,47.7,mm,1064,TA19
S0106,T03,LDIAM,11.5,mm,1064,TA19
S0106,,SUMDIAM,121.5,mm,1064,TA19
S0106,T01,LDIAM,62.3,mm,1120,TA20
S0106,T02,LDIAM,47.7,mm,1120,TA20
S0106,T03,LDIAM,11.5,mm,1120,TA20
S0106,,SUMDIAM,121.5,mm,1120,TA20
S0106,T01,LDIAM,62.3,mm,1176,TA21
S0106,T02,LDIAM,47.7,mm,1176,TA21
S0106,T03,LDIAM,11.5,mm,1176,TA21
S0106,,SUMDIAM,121.5,mm,1176,TA21
S0106,T01,LDIAM,62.3,mm,1232,TA22
S0106,T02,LDIAM,47.7,mm,1232,TA22
S0106,T03,LDIAM,11.5,mm,1232,TA22
S0106,,SUMDIAM,121.5,mm,1232,TA22
S0106,T01,LDIAM,62.3,mm,1288,TA23
S0106,T02,LDIAM,47.7,mm,1288,TA23
S0106,T03,LDIAM,11.5,mm,1288,TA23
S0106,,SUMDIAM,121.5,mm,1288,TA23
S0106,T01,LDIAM,62.3,mm,1344,TA24
S0106,T02,LDIAM,47.7,mm,1344,TA24
S0106,T03,LDIAM,11.5,mm,1344,TA24
S0106,,SUMDIAM,121.5,mm,1344,TA24
S0106,T01,LDIAM,62.3,mm,1400,TA25
S0106,T02,LDIAM,47.7,mm,1400,TA25
S0106,T03,LDIAM,11.5,mm,1400,TA25
S0106,,SUMDIAM,121.5,mm,1400,TA25
S0106,T01,LDIAM,62.3,mm,1456,TA26
S0106,T02,LDIAM,47.7,mm,1456,TA26
S0106,T03,LDIAM,11.5,mm,1456,TA26
S0106,,SUMDIAM,121.5,mm,1456,TA26
S0106,T01,LDIAM,62.3,mm,1512,TA27
S0106,T02,LDIAM,47.7,mm,1512,TA27
S0106,T03,LDIAM,11.5,mm,1512,TA27
S0106,,SUMDIAM,121.5,mm,1512,TA27
S0108,T01,LDIAM,31.1,mm,0,BASELINE
S0108,T02,LDIAM,52.6,mm,0,BASELINE
S0108,,SUMDIAM,83.7,mm,0,BASELINE
S0108,T01,LDIAM,33.3,mm,56,TA1
S0108,T02,LDIAM,56.3,mm,56,TA1
S0108,,SUMDIAM,89.6,mm,56,TA1
S0109,T01,LDIAM,12.5,mm,0,BASELINE
S0109,T02,LDIAM,53.3,mm,0,BASELINE
S0109,T03,LDIAM,11.2,mm,0,BASELINE
S0109,T04,LDIAM,31.6,mm,0,BASELINE
S0109,T05,LDIAM,31.3,mm,0,BASELINE
S0109,,SUMDIAM,139.9,mm,0,BASELINE
S0109,T01,LDIAM,13.7,mm,56,TA1
S0109,T02,LDIAM,58.3,mm,56,TA1
S0109,T03,LDIAM,12.2,mm,56,TA1
S0109,T04,LDIAM,34.5,mm,56,TA1
S0109,T05,LDIAM,34.2,mm,56,TA1
S0109,,SUMDIAM,152.9,mm,56,TA1
S0109,T01,LDIAM,14.8,mm,112,TA2
S0109,T02,LDIAM,63.2,mm,112,TA2
S0109,T03,LDIAM,13.3,mm,112,TA2
S0109,T04,LDIAM,37.5,mm,112,TA2
S0109,T05,LDIAM,37.1,mm,112,TA2
S0109,,SUMDIAM,165.9,mm,112,TA2
S0109,T01,LDIAM,14.8,mm,168,TA3
S0109,T02,LDIAM,63.2,mm,168,TA3
S0109,T03,LDIAM,13.3,mm,168,TA3
S0109,T04,LDIAM,37.5,mm,168,TA3
S0109,T05,LDIAM,37.1,mm,168,TA3
S0109,,SUMDIAM,165.9,mm,168,TA3
S0109,T01,LDIAM,14.8,mm,224,TA4
S0109,T02,LDIAM,63.2,mm,224,TA4
S0109,T03,LDIAM,13.3,mm,224,TA4
S0109,T04,LDIAM,37.5,mm,224,TA4
S0109,T05,LDIAM,37.1,mm,224,TA4
S0109,,SUMDIAM,165.9,mm,224,TA4
S0109,T01,LDIAM,18.1,mm,280,TA5
S0109,T02,LDIAM,77.3,mm,280,TA5
S0109,T03,LDIAM,16.2,mm,280,TA5
S0109,T04,LDIAM,45.8,mm,280,TA5
S0109,T05,LDIAM,45.4,mm,280,TA5
S0109,,SUMDIAM,202.9,mm,280,TA5
S0110,T01,LDIAM,44.2,mm,0,BASELINE
S0110,T02,LDIAM,16.7,mm,0,BASELINE
S0110,T03,LDIAM,45.7,mm,0,BASELINE
S0110,,SUMDIAM,106.6,mm,0,BASELINE
S0110,T01,LDIAM,26.0,mm,56,TA1
S0110,T02,LDIAM,9.8,mm,56,TA1
S0110,T03,LDIAM,26.9,mm,56,TA1
S0110,,SUMDIAM,62.8,mm,56,TA1
S0110,T01,LDIAM,7.9,mm,112,TA2
S0110,T02,LDIAM,3.0,mm,112,TA2
S0110,T03,LDIAM,8.2,mm,112,TA2
S0110,,SUMDIAM,19.0,mm,112,TA2
S0110,T01,LDIAM,7.9,mm,168,TA3
S0110,T02,LDIAM,3.0,mm,168,TA3
S0110,T03,LDIAM,8.2,mm,168,TA3
S0110,,SUMDIAM,19.0,mm,168,TA3
S0110,T01,LDIAM,7.9,mm,224,TA4
S0110,T02,LDIAM,3.0,mm,224,TA4
S0110,T03,LDIAM,8.2,mm,224,TA4
S0110,,SUMDIAM,19.0,mm,224,TA4
S0110,T01,LDIAM,7.9,mm,280,TA5
S0110,T02,LDIAM,3.0,mm,280,TA5
S0110,T03,LDIAM,8.2,mm,280,TA5
S0110,,SUMDIAM,19.0,mm,280,TA5
S0110,T01,LDIAM,7.9,mm,336,TA6
S0110,T02,LDIAM,3.0,mm,336,TA6
S0110,T03,LDIAM,8.2,mm,336,TA6
S0110,,SUMDIAM,19.0,mm,336,TA6
S0110,T01,LDIAM,7.9,mm,392,TA7
S0110,T02,LDIAM,3.0,mm,392,TA7
S0110,T03,LDIAM,8.2,mm,392,TA7
S0110,,SUMDIAM,19.0,mm,392,TA7
S0110,T01,LDIAM,13.2,mm,448,TA8
S0110,T02,LDIAM,5.0,mm,448,TA8
S0110,T03,LDIAM,13.7,mm,448,TA8
S0110,,SUMDIAM,31.9,mm,448,TA8
S0110,T01,LDIAM,13.2,mm,504,TA9
S0110,T02,LDIAM,5.0,mm,504,TA9
S0110,T03,LDIAM,13.7,mm,504,TA9
S0110,,SUMDIAM,31.9,mm,504,TA9
S0111,T01,LDIAM,58.1,mm,0,BASELINE
S0111,T02,LDIAM,56.9,mm,0,BASELINE
S0111,T03,LDIAM,46.0,mm,0,BASELINE
S0111,,SUMDIAM,161.0,mm,0,BASELINE
S0111,T01,LDIAM,42.0,mm,56,TA1
S0111,T02,LDIAM,41.2,mm,56,TA1
S0111,T03,LDIAM,33.3,mm,56,TA1
S0111,,SUMDIAM,116.4,mm,56,TA1
S0111,T01,LDIAM,25.9,mm,112,TA2
S0111,T02,LDIAM,25.4,mm,112,TA2
S0111,T03,LDIAM,20.5,mm,112,TA2
S0111,,SUMDIAM,71.9,mm,112,TA2
S0111,T01,LDIAM,25.9,mm,168,TA3
S0111,T02,LDIAM,25.4,mm,168,TA3
S0111,T03,LDIAM,20.5,mm,168,TA3
S0111,,SUMDIAM,71.9,mm,168,TA3
S0111,T01,LDIAM,25.9,mm,224,TA4
S0111,T02,LDIAM,25.4,mm,224,TA4
S0111,T03,LDIAM,20.5,mm,224,TA4
S0111,,SUMDIAM,71.9,mm,224,TA4
S0111,T01,LDIAM,25.9,mm,280,TA5
S0111,T02,LDIAM,25.4,mm,280,TA5
S0111,T03,LDIAM,20.5,mm,280,TA5
S0111,,SUMDIAM,71.9,mm,280,TA5
S0111,T01,LDIAM,25.9,mm,336,TA6
S0111,T02,LDIAM,25.4,mm,336,TA6
S0111,T03,LDIAM,20.5,mm,336,TA6
S0111,,SUMDIAM,71.9,mm,336,TA6
S0111,T01,LDIAM,25.9,mm,392,TA7
S0111,T02,LDIAM,25.4,mm,392,TA7
S0111,T03,LDIAM,20.5,mm,392,TA7
S0111,,SUMDIAM,71.9,mm,392,TA7
S0111,T01,LDIAM,25.9,mm,448,TA8
S0111,T02,LDIAM,25.4,mm,448,TA8
S0111,T03,LDIAM,20.5,mm,448,TA8
S0111,,SUMDIAM,71.9,mm,448,TA8
S0111,T01,LDIAM,25.9,mm,504,TA9
S0111,T02,LDIAM,25.4,mm,504,TA9
S0111,T03,LDIAM,20.5,mm,504,TA9
S0111,,SUMDIAM,71.9,mm,504,TA9
S0111,T01,LDIAM,25.9,mm,560,TA10
S0111,T02,LDIAM,25.4,mm,560,TA10
S0111,T03,LDIAM,20.5,mm,560,TA10
S0111,,SUMDIAM,71.9,mm,560,TA10
S0111,T01,LDIAM,25.9,mm,616,TA11
S0111,T02,LDIAM,25.4,mm,616,TA11
S0111,T03,LDIAM,20.5,mm,616,TA11
S0111,,SUMDIAM,71.9,mm,616,TA11
S0111,T01,LDIAM,25.9,mm,672,TA12
S0111,T02,LDIAM,25.4,mm,672,TA12
S0111,T03,LDIAM,20.5,mm,672,TA12
S0111,,SUMDIAM,71.9,mm,672,TA12
S0111,T01,LDIAM,25.9,mm,728,TA13
S0111,T02,LDIAM,25.4,mm,728,TA13
S0111,T03,LDIAM,20.5,mm,728,TA13
S0111,,SUMDIAM,71.9,mm,728,TA13
S0111,T01,LDIAM,25.9,mm,784,TA14
S0111,T02,LDIAM,25.4,mm,784,TA14
S0111,T03,LDIAM,20.5,mm,784,TA14
S0111,,SUMDIAM,71.9,mm,784,TA14
S0111,T01,LDIAM,25.9,mm,840,TA15
S0111,T02,LDIAM,25.4,mm,840,TA15
S0111,T03,LDIAM,20.5,mm,840,TA15
S0111,,SUMDIAM,71.9,mm,840,TA15
S0111,T01,LDIAM,25.9,mm,896,TA16
S0111,T02,LDIAM,25.4,mm,896,TA16
S0111,T03,LDIAM,20.5,mm,896,TA16
S0111,,SUMDIAM,71.9,mm,896,TA16
S0111,T01,LDIAM,25.9,mm,952,TA17
S0111,T02,LDIAM,25.4,mm,952,TA17
S0111,T03,LDIAM,20.5,mm,952,TA17
S0111,,SUMDIAM,71.9,mm,952,TA17
S0111,T01,LDIAM,25.9,mm,1008,TA18
S0111,T02,LDIAM,25.4,mm,1008,TA18
S0111,T03,LDIAM,20.5,mm,1008,TA18
S0111,,SUMDIAM,71.9,mm,1008,TA18
S0111,T01,LDIAM,25.9,mm,1064,TA19
S0111,T02,LDIAM,25.4,mm,1064,TA19
S0111,T03,LDIAM,20.5,mm,1064,TA19
S0111,,SUMDIAM,71.9,mm,1064,TA19
S0111,T01,LDIAM,25.9,mm,1120,TA20
S0111,T02,LDIAM,25.4,mm,1120,TA20
S0111,T03,LDIAM,20.5,mm,1120,TA20
S0111,,SUMDIAM,71.9,mm,1120,TA20
S0111,T01,LDIAM,25.9,mm,1176,TA21
S0111,T02,LDIAM,25.4,mm,1176,TA21
S0111,T03,LDIAM,20.5,mm,1176,TA21
S0111,,SUMDIAM,71.9,mm,1176,TA21
S0111,T01,LDIAM,25.9,mm,1232,TA22
S0111,T02,LDIAM,25.4,mm,1232,TA22
S0111,T03,LDIAM,20.5,mm,1232,TA22
S0111,,SUMDIAM,71.9,mm,1232,TA22
S0111,T01,LDIAM,25.9,mm,1288,TA23
S0111,T02,LDIAM,25.4,mm,1288,TA23
S0111,T03,LDIAM,20.5,mm,1288,TA23
S0111,,SUMDIAM,71.9,mm,1288,TA23
S0111,T01,LDIAM,25.9,mm,1344,TA24
S0111,T02,LDIAM,25.4,mm,1344,TA24
S0111,T03,LDIAM,20.5,mm,1344,TA24
S0111,,SUMDIAM,71.9,mm,1344,TA24
S0111,T01,LDIAM,25.9,mm,1400,TA25
S0111,T02,LDIAM,25.4,mm,1400,TA25
S0111,T03,LDIAM,20.5,mm,1400,TA25
S0111,,SUMDIAM,71.9,mm,1400,TA25
S0111,T01,LDIAM,25.9,mm,1456,TA26
S0111,T02,LDIAM,25.4,mm,1456,TA26
S0111,T03,LDIAM,20.5,mm,1456,TA26
S0111,,SUMDIAM,71.9,mm,1456,TA26
S0114,T01,LDIAM,39.4,mm,0,BASELINE
S0114,T02,LDIAM,25.8,mm,0,BASELINE
S0114,T03,LDIAM,47.6,mm,0,BASELINE
S0114,T04,LDIAM,12.3,mm,0,BASELINE
S0114,,SUMDIAM,125.1,mm,0,BASELINE
S0114,T01,LDIAM,33.6,mm,56,TA1
S0114,T02,LDIAM,22.0,mm,56,TA1
S0114,T03,LDIAM,40.6,mm,56,TA1
S0114,T04,LDIAM,10.5,mm,56,TA1
S0114,,SUMDIAM,106.6,mm,56,TA1
S0114,T01,LDIAM,27.7,mm,112,TA2
S0114,T02,LDIAM,18.2,mm,112,TA2
S0114,T03,LDIAM,33.5,mm,112,TA2
S0114,T04,LDIAM,8.7,mm,112,TA2
S0114,,SUMDIAM,88.0,mm,112,TA2
S0116,T01,LDIAM,13.6,mm,0,BASELINE
S0116,T02,LDIAM,17.0,mm,0,BASELINE
S0116,T03,LDIAM,11.8,mm,0,BASELINE
S0116,T04,LDIAM,36.3,mm,0,BASELINE
S0116,,SUMDIAM,78.7,mm,0,BASELINE
S0116,T01,LDIAM,9.8,mm,56,TA1
S0116,T02,LDIAM,12.3,mm,56,TA1
S0116,T03,LDIAM,8.5,mm,56,TA1
S0116,T04,LDIAM,26.3,mm,56,TA1
S0116,,SUMDIAM,57.0,mm,56,TA1
S0116,T01,LDIAM,6.1,mm,112,TA2
S0116,T02,LDIAM,7.6,mm,112,TA2
S0116,T03,LDIAM,5.3,mm,112,TA2
S0116,T04,LDIAM,16.2,mm,112,TA2
S0116,,SUMDIAM,35.2,mm,112,TA2
S0117,T01,LDIAM,57.0,mm,0,BASELINE
S0117,T02,LDIAM,28.2,mm,0,BASELINE
S0117,T03,LDIAM,44.8,mm,0,BASELINE
S0117,T04,LDIAM,46.9,mm,0,BASELINE
S0117,T05,LDIAM,17.4,mm,0,BASELINE
S0117,,SUMDIAM,194.3,mm,0,BASELINE
S0117,T01,LDIAM,62.9,mm,56,TA1
S0117,T02,LDIAM,31.1,mm,56,TA1
S0117,T03,LDIAM,49.5,mm,56,TA1
S0117,T04,LDIAM,51.8,mm,56,TA1
S0117,T05,LDIAM,19.2,mm,56,TA1
S0117,,SUMDIAM,214.5,mm,56,TA1
S0117,T01,LDIAM,68.8,mm,112,TA2
S0117,T02,LDIAM,34.1,mm,112,TA2
S0117,T03,LDIAM,54.1,mm,112,TA2
S0117,T04,LDIAM,56.6,mm,112,TA2
S0117,T05,LDIAM,21.0,mm,112,TA2
S0117,,SUMDIAM,234.7,mm,112,TA2
S0117,T01,LDIAM,68.8,mm,168,TA3
S0117,T02,LDIAM,34.1,mm,168,TA3
S0117,T03,LDIAM,54.1,mm,168,TA3
S0117,T04,LDIAM,56.6,mm,168,TA3
S0117,T05,LDIAM,21.0,mm,168,TA3
S0117,,SUMDIAM,234.7,mm,168,TA3
S0117,T01,LDIAM,68.8,mm,224,TA4
S0117,T02,LDIAM,34.1,mm,224,TA4
S0117,T03,LDIAM,54.1,mm,224,TA4
S0117,T04,LDIAM,56.6,mm,224,TA4
S0117,T05,LDIAM,21.0,mm,224,TA4
S0117,,SUMDIAM,234.7,mm,224,TA4
S0117,T01,LDIAM,68.8,mm,280,TA5
S0117,T02,LDIAM,34.1,mm,280,TA5
S0117,T03,LDIAM,54.1,mm,280,TA5
S0117,T04,LDIAM,56.6,mm,280,TA5
S0117,T05,LDIAM,21.0,mm,280,TA5
S0117,,SUMDIAM,234.7,mm,280,TA5
S0117,T01,LDIAM,68.8,mm,336,TA6
S0117,T02,LDIAM,34.1,mm,336,TA6
S0117,T03,LDIAM,54.1,mm,336,TA6
S0117,T04,LDIAM,56.6,mm,336,TA6
S0117,T05,LDIAM,21.0,mm,336,TA6
S0117,,SUMDIAM,234.7,mm,336,TA6
S0117,T01,LDIAM,82.6,mm,392,TA7
S0117,T02,LDIAM,40.9,mm,392,TA7
S0117,T03,LDIAM,65.0,mm,392,TA7
S0117,T04,LDIAM,68.0,mm,392,TA7
S0117,T05,LDIAM,25.2,mm,392,TA7
S0117,,SUMDIAM,281.7,mm,392,TA7
S0119,T01,LDIAM,22.1,mm,0,BASELINE
S0119,T02,LDIAM,32.0,mm,0,BASELINE
S0119,T03,LDIAM,20.2,mm,0,BASELINE
S0119,,SUMDIAM,74.3,mm,0,BASELINE
S0119,T01,LDIAM,19.4,mm,56,TA1
S0119,T02,LDIAM,28.2,mm,56,TA1
S0119,T03,LDIAM,17.8,mm,56,TA1
S0119,,SUMDIAM,65.4,mm,56,TA1
S0119,T01,LDIAM,28.3,mm,112,TA2
S0119,T02,LDIAM,41.0,mm,112,TA2
S0119,T03,LDIAM,25.9,mm,112,TA2
S0119,,SUMDIAM,95.3,mm,112,TA2
S0120,T01,LDIAM,26.4,mm,0,BASELINE
S0120,T02,LDIAM,34.9,mm,0,BASELINE
S0120,,SUMDIAM,61.3,mm,0,BASELINE
S0120,T01,LDIAM,13.2,mm,56,TA1
S0120,T02,LDIAM,17.4,mm,56,TA1
S0120,,SUMDIAM,30.6,mm,56,TA1
S0121,T01,LDIAM,40.9,mm,0,BASELINE
S0121,T02,LDIAM,15.1,mm,0,BASELINE
S0121,T03,LDIAM,27.9,mm,0,BASELINE
S0121,,SUMDIAM,83.9,mm,0,BASELINE
S0121,T01,LDIAM,46.8,mm,56,TA1
S0121,T02,LDIAM,17.3,mm,56,TA1
S0121,T03,LDIAM,31.9,mm,56,TA1
S0121,,SUMDIAM,95.9,mm,56,TA1
S0121,T01,LDIAM,52.6,mm,112,TA2
S0121,T02,LDIAM,19.4,mm,112,TA2
S0121,T03,LDIAM,35.9,mm,112,TA2
S0121,,SUMDIAM,107.9,mm,112,TA2
S0121,T01,LDIAM,52.6,mm,168,TA3
S0121,T02,LDIAM,19.4,mm,168,TA3
S0121,T03,LDIAM,35.9,mm,168,TA3
S0121,,SUMDIAM,107.9,mm,168,TA3
S0121,T01,LDIAM,52.6,mm,224,TA4
S0121,T02,LDIAM,19.4,mm,224,TA4
S0121,T03,LDIAM,35.9,mm,224,TA4
S0121,,SUMDIAM,107.9,mm,224,TA4
S0121,T01,LDIAM,52.6,mm,280,TA5
S0121,T02,LDIAM,19.4,mm,280,TA5
S0121,T03,LDIAM,35.9,mm,280,TA5
S0121,,SUMDIAM,107.9,mm,280,TA5
S0121,T01,LDIAM,52.6,mm,336,TA6
S0121,T02,LDIAM,19.4,mm,336,TA6
S0121,T03,LDIAM,35.9,mm,336,TA6
S0121,,SUMDIAM,107.9,mm,336,TA6
S0121,T01,LDIAM,52.6,mm,392,TA7
S0121,T02,LDIAM,19.4,mm,392,TA7
S0121,T03,LDIAM,35.9,mm,392,TA7
S0121,,SUMDIAM,107.9,mm,392,TA7
S0121,T01,LDIAM,52.6,mm,448,TA8
S0121,T02,LDIAM,19.4,mm,448,TA8
S0121,T03,LDIAM,35.9,mm,448,TA8
S0121,,SUMDIAM,107.9,mm,448,TA8
S0121,T01,LDIAM,52.6,mm,504,TA9
S0121,T02,LDIAM,19.4,mm,504,TA9
S0121,T03,LDIAM,35.9,mm,504,TA9
S0121,,SUMDIAM,107.9,mm,504,TA9
S0121,T01,LDIAM,52.6,mm,560,TA10
S0121,T02,LDIAM,19.4,mm,560,TA10
S0121,T03,LDIAM,35.9,mm,560,TA10
S0121,,SUMDIAM,107.9,mm,560,TA10
S0121,T01,LDIAM,52.6,mm,616,TA11
S0121,T02,LDIAM,19.4,mm,616,TA11
S0121,T03,LDIAM,35.9,mm,616,TA11
S0121,,SUMDIAM,107.9,mm,616,TA11
S0121,T01,LDIAM,52.6,mm,672,TA12
S0121,T02,LDIAM,19.4,mm,672,TA12
S0121,T03,LDIAM,35.9,mm,672,TA12
S0121,,SUMDIAM,107.9,mm,672,TA12
S0121,T01,LDIAM,52.6,mm,728,TA13
S0121,T02,LDIAM,19.4,mm,728,TA13
S0121,T03,LDIAM,35.9,mm,728,TA13
S0121,,SUMDIAM,107.9,mm,728,TA13
S0121,T01,LDIAM,52.6,mm,784,TA14
S0121,T02,LDIAM,19.4,mm,784,TA14
S0121,T03,LDIAM,35.9,mm,784,TA14
S0121,,SUMDIAM,107.9,mm,784,TA14
S0121,T01,LDIAM,52.6,mm,840,TA15
S0121,T02,LDIAM,19.4,mm,840,TA15
S0121,T03,LDIAM,35.9,mm,840,TA15
S0121,,SUMDIAM,107.9,mm,840,TA15
S0121,T01,LDIAM,52.6,mm,896,TA16
S0121,T02,LDIAM,19.4,mm,896,TA16
S0121,T03,LDIAM,35.9,mm,896,TA16
S0121,,SUMDIAM,107.9,mm,896,TA16
S0121,T01,LDIAM,52.6,mm,952,TA17
S0121,T02,LDIAM,19.4,mm,952,TA17
S0121,T03,LDIAM,35.9,mm,952,TA17
S0121,,SUMDIAM,107.9,mm,952,TA17
S0121,T01,LDIAM,52.6,mm,1008,TA18
S0121,T02,LDIAM,19.4,mm,1008,TA18
S0121,T03,LDIAM,35.9,mm,1008,TA18
S0121,,SUMDIAM,107.9,mm,1008,TA18
S0121,T01,LDIAM,52.6,mm,1064,TA19
S0121,T02,LDIAM,19.4,mm,1064,TA19
S0121,T03,LDIAM,35.9,mm,1064,TA19
S0121,,SUMDIAM,107.9,mm,1064,TA19
S0121,T01,LDIAM,52.6,mm,1120,TA20
S0121,T02,LDIAM,19.4,mm,1120,TA20
S0121,T03,LDIAM,35.9,mm,1120,TA20
S0121,,SUMDIAM,107.9,mm,1120,TA20
S0121,T01,LDIAM,52.6,mm,1176,TA21
S0121,T02,LDIAM,19.4,mm,1176,TA21
S0121,T03,LDIAM,35.9,mm,1176,TA21
S0121,,SUMDIAM,107.9,mm,1176,TA21
S0121,T01,LDIAM,52.6,mm,1232,TA22
S0121,T02,LDIAM,19.4,mm,1232,TA22
S0121,T03,LDIAM,35.9,mm,1232,TA22
S0121,,SUMDIAM,107.9,mm,1232,TA22
S0121,T01,LDIAM,52.6,mm,1288,TA23
S0121,T02,LDIAM,19.4,mm,1288,TA23
S0121,T03,LDIAM,35.9,mm,1288,TA23
S0121,,SUMDIAM,107.9,mm,1288,TA23
S0121,T01,LDIAM,52.6,mm,1344,TA24
S0121,T02,LDIAM,19.4,mm,1344,TA24
S0121,T03,LDIAM,35.9,mm,1344,TA24
S0121,,SUMDIAM,107.9,mm,1344,TA24
S0121,T01,LDIAM,52.6,mm,1400,TA25
S0121,T02,LDIAM,19.4,mm,1400,TA25
S0121,T03,LDIAM,35.9,mm,1400,TA25
S0121,,SUMDIAM,107.9,mm,1400,TA25
S0121,T01,LDIAM,52.6,mm,1456,TA26
S0121,T02,LDIAM,19.4,mm,1456,TA26
S0121,T03,LDIAM,35.9,mm,1456,TA26
S0121,,SUMDIAM,107.9,mm,1456,TA26
S0122,T01,LDIAM,28.4,mm,0,BASELINE
S0122,T02,LDIAM,17.0,mm,0,BASELINE
S0122,,SUMDIAM,45.4,mm,0,BASELINE
S0122,T01,LDIAM,21.4,mm,56,TA1
S0122,T02,LDIAM,12.8,mm,56,TA1
S0122,,SUMDIAM,34.1,mm,56,TA1
S0122,T01,LDIAM,14.3,mm,112,TA2
S0122,T02,LDIAM,8.6,mm,112,TA2
S0122,,SUMDIAM,22.9,mm,112,TA2
S0122,T01,LDIAM,14.3,mm,168,TA3
S0122,T02,LDIAM,8.6,mm,168,TA3
S0122,,SUMDIAM,22.9,mm,168,TA3
S0122,T01,LDIAM,14.3,mm,224,TA4
S0122,T02,LDIAM,8.6,mm,224,TA4
S0122,,SUMDIAM,22.9,mm,224,TA4
S0122,T01,LDIAM,14.3,mm,280,TA5
S0122,T02,LDIAM,8.6,mm,280,TA5
S0122,,SUMDIAM,22.9,mm,280,TA5
S0122,T01,LDIAM,14.3,mm,336,TA6
S0122,T02,LDIAM,8.6,mm,336,TA6
S0122,,SUMDIAM,22.9,mm,336,TA6
S0122,T01,LDIAM,14.3,mm,392,TA7
S0122,T02,LDIAM,8.6,mm,392,TA7
S0122,,SUMDIAM,22.9,mm,392,TA7
S0122,T01,LDIAM,14.3,mm,448,TA8
S0122,T02,LDIAM,8.6,mm,448,TA8
S0122,,SUMDIAM,22.9,mm,448,TA8
S0122,T01,LDIAM,14.3,mm,504,TA9
S0122,T02,LDIAM,8.6,mm,504,TA9
S0122,,SUMDIAM,22.9,mm,504,TA9
S0122,T01,LDIAM,14.3,mm,560,TA10
S0122,T02,LDIAM,8.6,mm,560,TA10
S0122,,SUMDIAM,22.9,mm,560,TA10
S0122,T01,LDIAM,14.3,mm,616,TA11
S0122,T02,LDIAM,8.6,mm,616,TA11
S0122,,SUMDIAM,22.9,mm,616,TA11
S0122,T01,LDIAM,14.3,mm,672,TA12
S0122,T02,LDIAM,8.6,mm,672,TA12
S0122,,SUMDIAM,22.9,mm,672,TA12
S0122,T01,LDIAM,14.3,mm,728,TA13
S0122,T02,LDIAM,8.6,mm,728,TA13
S0122,,SUMDIAM,22.9,mm,728,TA13
S0122,T01,LDIAM,14.3,mm,784,TA14
S0122,T02,LDIAM,8.6,mm,784,TA14
S0122,,SUMDIAM,22.9,mm,784,TA14
S0122,T01,LDIAM,14.3,mm,840,TA15
S0122,T02,LDIAM,8.6,mm,840,TA15
S0122,,SUMDIAM,22.9,mm,840,TA15
S0122,T01,LDIAM,14.3,mm,896,TA16
S0122,T02,LDIAM,8.6,mm,896,TA16
S0122,,SUMDIAM,22.9,mm,896,TA16
S0122,T01,LDIAM,14.3,mm,952,TA17
S0122,T02,LDIAM,8.6,mm,952,TA17
S0122,,SUMDIAM,22.9,mm,952,TA17
S0122,T01,LDIAM,14.3,mm,1008,TA18
S0122,T02,LDIAM,8.6,mm,1008,TA18
S0122,,SUMDIAM,22.9,mm,1008,TA18
S0122,T01,LDIAM,14.3,mm,1064,TA19
S0122,T02,LDIAM,8.6,mm,1064,TA19
S0122,,SUMDIAM,22.9,mm,1064,TA19
S0122,T01,LDIAM,14.3,mm,1120,TA20
S0122,T02,LDIAM,8.6,mm,1120,TA20
S0122,,SUMDIAM,22.9,mm,1120,TA20
S0122,T01,LDIAM,14.3,mm,1176,TA21
S0122,T02,LDIAM,8.6,mm,1176,TA21
S0122,,SUMDIAM,22.9,mm,1176,TA21
S0122,T01,LDIAM,14.3,mm,1232,TA22
S0122,T02,LDIAM,8.6,mm,1232,TA22
S0122,,SUMDIAM,22.9,mm,1232,TA22
S0122,T01,LDIAM,14.3,mm,1288,TA23
S0122,T02,LDIAM,8.6,mm,1288,TA23
S0122,,SUMDIAM,22.9,mm,1288,TA23
S0122,T01,LDIAM,14.3,mm,1344,TA24
S0122,T02,LDIAM,8.6,mm,1344,TA24
S0122,,SUMDIAM,22.9,mm,1344,TA24
S0122,T01,LDIAM,14.3,mm,1400,TA25
S0122,T02,LDIAM,8.6,mm,1400,TA25
S0122,,SUMDIAM,22.9,mm,1400,TA25
S0122,T01,LDIAM,14.3,mm,1456,TA26
S0122,T02,LDIAM,8.6,mm,1456,TA26
S0122,,SUMDIAM,22.9,mm,1456,TA26
S0124,T01,LDIAM,55.7,mm,0,BASELINE
S0124,,SUMDIAM,55.7,mm,0,BASELINE
S0124,T01,LDIAM,62.9,mm,56,TA1
S0124,,SUMDIAM,62.9,mm,56,TA1
S0124,T01,LDIAM,70.0,mm,112,TA2
S0124,,SUMDIAM,70.0,mm,112,TA2
S0124,T01,LDIAM,70.0,mm,168,TA3
S0124,,SUMDIAM,70.0,mm,168,TA3
S0124,T01,LDIAM,70.0,mm,224,TA4
S0124,,SUMDIAM,70.0,mm,224,TA4
S0124,T01,LDIAM,70.0,mm,280,TA5
S0124,,SUMDIAM,70.0,mm,280,TA5
S0124,T01,LDIAM,70.0,mm,336,TA6
S0124,,SUMDIAM,70.0,mm,336,TA6
S0124,T01,LDIAM,70.0,mm,392,TA7
S0124,,SUMDIAM,70.0,mm,392,TA7
S0124,T01,LDIAM,70.0,mm,448,TA8
S0124,,SUMDIAM,70.0,mm,448,TA8
S0124,T01,LDIAM,70.0,mm,504,TA9
S0124,,SUMDIAM,70.0,mm,504,TA9
S0124,T01,LDIAM,70.0,mm,560,TA10
S0124,,SUMDIAM,70.0,mm,560,TA10
S0124,T01,LDIAM,70.0,mm,616,TA11
S0124,,SUMDIAM,70.0,mm,616,TA11
S0124,T01,LDIAM,70.0,mm,672,TA12
S0124,,SUMDIAM,70.0,mm,672,TA12
S0124,T01,LDIAM,70.0,mm,728,TA13
S0124,,SUMDIAM,70.0,mm,728,TA13
S0124,T01,LDIAM,70.0,mm,784,TA14
S0124,,SUMDIAM,70.0,mm,784,TA14
S0124,T01,LDIAM,70.0,mm,840,TA15
S0124,,SUMDIAM,70.0,mm,840,TA15
S0124,T01,LDIAM,70.0,mm,896,TA16
S0124,,SUMDIAM,70.0,mm,896,TA16
S0124,T01,LDIAM,70.0,mm,952,TA17
S0124,,SUMDIAM,70.0,mm,952,TA17
S0124,T01,LDIAM,70.0,mm,1008,TA18
S0124,,SUMDIAM,70.0,mm,1008,TA18
S0124,T01,LDIAM,70.0,mm,1064,TA19
S0124,,SUMDIAM,70.0,mm,1064,TA19
S0124,T01,LDIAM,70.0,mm,1120,TA20
S0124,,SUMDIAM,70.0,mm,1120,TA20
S0124,T01,LDIAM,70.0,mm,1176,TA21
S0124,,SUMDIAM,70.0,mm,1176,TA21
S0124,T01,LDIAM,70.0,mm,1232,TA22
S0124,,SUMDIAM,70.0,mm,1232,TA22
S0124,T01,LDIAM,70.0,mm,1288,TA23
S0124,,SUMDIAM,70.0,mm,1288,TA23
S0124,T01,LDIAM,70.0,mm,1344,TA24
S0124,,SUMDIAM,70.0,mm,1344,TA24
S0124,T01,LDIAM,70.0,mm,1400,TA25
S0124,,SUMDIAM,70.0,mm,1400,TA25
S0124,T01,LDIAM,70.0,mm,1456,TA26
S0124,,SUMDIAM,70.0,mm,1456,TA26
S0125,T01,LDIAM,50.0,mm,0,BASELINE
S0125,T02,LDIAM,26.5,mm,0,BASELINE
S0125,T03,LDIAM,15.0,mm,0,BASELINE
S0125,,SUMDIAM,91.5,mm,0,BASELINE
S0125,T01,LDIAM,34.6,mm,56,TA1
S0125,T02,LDIAM,18.3,mm,56,TA1
S0125,T03,LDIAM,10.4,mm,56,TA1
S0125,,SUMDIAM,63.3,mm,56,TA1
S0125,T01,LDIAM,19.2,mm,112,TA2
S0125,T02,LDIAM,10.2,mm,112,TA2
S0125,T03,LDIAM,5.7,mm,112,TA2
S0125,,SUMDIAM,35.0,mm,112,TA2
S0126,T01,LDIAM,55.5,mm,0,BASELINE
S0126,,SUMDIAM,55.5,mm,0,BASELINE
S0126,T01,LDIAM,55.2,mm,56,TA1
S0126,,SUMDIAM,55.2,mm,56,TA1
S0128,T01,LDIAM,14.2,mm,0,BASELINE
S0128,T02,LDIAM,39.1,mm,0,BASELINE
S0128,T03,LDIAM,28.4,mm,0,BASELINE
S0128,,SUMDIAM,81.7,mm,0,BASELINE
S0128,T01,LDIAM,14.1,mm,56,TA1
S0128,T02,LDIAM,38.8,mm,56,TA1
S0128,T03,LDIAM,28.2,mm,56,TA1
S0128,,SUMDIAM,81.0,mm,56,TA1
S0128,T01,LDIAM,14.0,mm,112,TA2
S0128,T02,LDIAM,38.4,mm,112,TA2
S0128,T03,LDIAM,27.9,mm,112,TA2
S0128,,SUMDIAM,80.3,mm,112,TA2
S0128,T01,LDIAM,14.0,mm,168,TA3
S0128,T02,LDIAM,38.4,mm,168,TA3
S0128,T03,LDIAM,27.9,mm,168,TA3
S0128,,SUMDIAM,80.3,mm,168,TA3
S0128,T01,LDIAM,14.0,mm,224,TA4
S0128,T02,LDIAM,38.4,mm,224,TA4
S0128,T03,LDIAM,27.9,mm,224,TA4
S0128,,SUMDIAM,80.3,mm,224,TA4
S0128,T01,LDIAM,14.0,mm,280,TA5
S0128,T02,LDIAM,38.4,mm,280,TA5
S0128,T03,LDIAM,27.9,mm,280,TA5
S0128,,SUMDIAM,80.3,mm,280,TA5
S0128,T01,LDIAM,14.0,mm,336,TA6
S0128,T02,LDIAM,38.4,mm,336,TA6
S0128,T03,LDIAM,27.9,mm,336,TA6
S0128,,SUMDIAM,80.3,mm,336,TA6
S0128,T01,LDIAM,14.0,mm,392,TA7
S0128,T02,LDIAM,38.4,mm,392,TA7
S0128,T03,LDIAM,27.9,mm,392,TA7
S0128,,SUMDIAM,80.3,mm,392,TA7
S0128,T01,LDIAM,14.0,mm,448,TA8
S0128,T02,LDIAM,38.4,mm,448,TA8
S0128,T03,LDIAM,27.9,mm,448,TA8
S0128,,SUMDIAM,80.3,mm,448,TA8
S0128,T01,LDIAM,14.0,mm,504,TA9
S0128,T02,LDIAM,38.4,mm,504,TA9
S0128,T03,LDIAM,27.9,mm,504,TA9
S0128,,SUMDIAM,80.3,mm,504,TA9
S0128,T01,LDIAM,14.0,mm,560,TA10
S0128,T02,LDIAM,38.4,mm,560,TA10
S0128,T03,LDIAM,27.9,mm,560,TA10
S0128,,SUMDIAM,80.3,mm,560,TA10
S0128,T01,LDIAM,14.0,mm,616,TA11
S0128,T02,LDIAM,38.4,mm,616,TA11
S0128,T03,LDIAM,27.9,mm,616,TA11
S0128,,SUMDIAM,80.3,mm,616,TA11
S0128,T01,LDIAM,14.0,mm,672,TA12
S0128,T02,LDIAM,38.4,mm,672,TA12
S0128,T03,LDIAM,27.9,mm,672,TA12
S0128,,SUMDIAM,80.3,mm,672,TA12
S0128,T01,LDIAM,14.0,mm,728,TA13
S0128,T02,LDIAM,38.4,mm,728,TA13
S0128,T03,LDIAM,27.9,mm,728,TA13
S0128,,SUMDIAM,80.3,mm,728,TA13
S0128,T01,LDIAM,14.0,mm,784,TA14
S0128,T02,LDIAM,38.4,mm,784,TA14
S0128,T03,LDIAM,27.9,mm,784,TA14
S0128,,SUMDIAM,80.3,mm,784,TA14
S0128,T01,LDIAM,14.0,mm,840,TA15
S0128,T02,LDIAM,38.4,mm,840,TA15
S0128,T03,LDIAM,27.9,mm,840,TA15
S0128,,SUMDIAM,80.3,mm,840,TA15
S0128,T01,LDIAM,14.0,mm,896,TA16
S0128,T02,LDIAM,38.4,mm,896,TA16
S0128,T03,LDIAM,27.9,mm,896,TA16
S0128,,SUMDIAM,80.3,mm,896,TA16
S0128,T01,LDIAM,14.0,mm,952,TA17
S0128,T02,LDIAM,38.4,mm,952,TA17
S0128,T03,LDIAM,27.9,mm,952,TA17
S0128,,SUMDIAM,80.3,mm,952,TA17
S0128,T01,LDIAM,14.0,mm,1008,TA18
S0128,T02,LDIAM,38.4,mm,1008,TA18
S0128,T03,LDIAM,27.9,mm,1008,TA18
S0128,,SUMDIAM,80.3,mm,1008,TA18
S0128,T01,LDIAM,14.0,mm,1064,TA19
S0128,T02,LDIAM,38.4,mm,1064,TA19
S0128,T03,LDIAM,27.9,mm,1064,TA19
S0128,,SUMDIAM,80.3,mm,1064,TA19
S0128,T01,LDIAM,14.0,mm,1120,TA20
S0128,T02,LDIAM,38.4,mm,1120,TA20
S0128,T03,LDIAM,27.9,mm,1120,TA20
S0128,,SUMDIAM,80.3,mm,1120,TA20
S0128,T01,LDIAM,14.0,mm,1176,TA21
S0128,T02,LDIAM,38.4,mm,1176,TA21
S0128,T03,LDIAM,27.9,mm,1176,TA21
S0128,,SUMDIAM,80.3,mm,1176,TA21
S0128,T01,LDIAM,14.0,mm,1232,TA22
S0128,T02,LDIAM,38.4,mm,1232,TA22
S0128,T03,LDIAM,27.9,mm,1232,TA22
S0128,,SUMDIAM,80.3,mm,1232,TA22
S0128,T01,LDIAM,14.0,mm,1288,TA23
S0128,T02,LDIAM,38.4,mm,1288,TA23
S0128,T03,LDIAM,27.9,mm,1288,TA23
S0128,,SUMDIAM,80.3,mm,1288,TA23
S0128,T01,LDIAM,14.0,mm,1344,TA24
S0128,T02,LDIAM,38.4,mm,1344,TA24
S0128,T03,LDIAM,27.9,mm,1344,TA24
S0128,,SUMDIAM,80.3,mm,1344,TA24
S0128,T01,LDIAM,14.0,mm,1400,TA25
S0128,T02,LDIAM,38.4,mm,1400,TA25
S0128,T03,LDIAM,27.9,mm,1400,TA25
S0128,,SUMDIAM,80.3,mm,1400,TA25
S0129,T01,LDIAM,34.1,mm,0,BASELINE
S0129,T02,LDIAM,19.5,mm,0,BASELINE
S0129,T03,LDIAM,32.8,mm,0,BASELINE
S0129,,SUMDIAM,86.4,mm,0,BASELINE
S0129,T01,LDIAM,21.3,mm,56,TA1
S0129,T02,LDIAM,12.2,mm,56,TA1
S0129,T03,LDIAM,20.5,mm,56,TA1
S0129,,SUMDIAM,54.0,mm,56,TA1
S0129,T01,LDIAM,8.5,mm,112,TA2
S0129,T02,LDIAM,4.9,mm,112,TA2
S0129,T03,LDIAM,8.2,mm,112,TA2
S0129,,SUMDIAM,21.6,mm,112,TA2
S0129,T01,LDIAM,8.5,mm,168,TA3
S0129,T02,LDIAM,4.9,mm,168,TA3
S0129,T03,LDIAM,8.2,mm,168,TA3
S0129,,SUMDIAM,21.6,mm,168,TA3
S0129,T01,LDIAM,8.5,mm,224,TA4
S0129,T02,LDIAM,4.9,mm,224,TA4
S0129,T03,LDIAM,8.2,mm,224,TA4
S0129,,SUMDIAM,21.6,mm,224,TA4
S0129,T01,LDIAM,8.5,mm,280,TA5
S0129,T02,LDIAM,4.9,mm,280,TA5
S0129,T03,LDIAM,8.2,mm,280,TA5
S0129,,SUMDIAM,21.6,mm,280,TA5
S0129,T01,LDIAM,8.5,mm,336,TA6
S0129,T02,LDIAM,4.9,mm,336,TA6
S0129,T03,LDIAM,8.2,mm,336,TA6
S0129,,SUMDIAM,21.6,mm,336,TA6
S0129,T01,LDIAM,8.5,mm,392,TA7
S0129,T02,LDIAM,4.9,mm,392,TA7
S0129,T03,LDIAM,8.2,mm,392,TA7
S0129,,SUMDIAM,21.6,mm,392,TA7
S0129,T01,LDIAM,8.5,mm,448,TA8
S0129,T02,LDIAM,4.9,mm,448,TA8
S0129,T03,LDIAM,8.2,mm,448,TA8
S0129,,SUMDIAM,21.6,mm,448,TA8
S0129,T01,LDIAM,8.5,mm,504,TA9
S0129,T02,LDIAM,4.9,mm,504,TA9
S0129,T03,LDIAM,8.2,mm,504,TA9
S0129,,SUMDIAM,21.6,mm,504,TA9
S0129,T01,LDIAM,8.5,mm,560,TA10
S0129,T02,LDIAM,4.9,mm,560,TA10
S0129,T03,LDIAM,8.2,mm,560,TA10
S0129,,SUMDIAM,21.6,mm,560,TA10
S0129,T01,LDIAM,8.5,mm,616,TA11
S0129,T02,LDIAM,4.9,mm,616,TA11
S0129,T03,LDIAM,8.2,mm,616,TA11
S0129,,SUMDIAM,21.6,mm,616,TA11
S0129,T01,LDIAM,8.5,mm,672,TA12
S0129,T02,LDIAM,4.9,mm,672,TA12
S0129,T03,LDIAM,8.2,mm,672,TA12
S0129,,SUMDIAM,21.6,mm,672,TA12
S0129,T01,LDIAM,8.5,mm,728,TA13
S0129,T02,LDIAM,4.9,mm,728,TA13
S0129,T03,LDIAM,8.2,mm,728,TA13
S0129,,SUMDIAM,21.6,mm,728,TA13
S0129,T01,LDIAM,8.5,mm,784,TA14
S0129,T02,LDIAM,4.9,mm,784,TA14
S0129,T03,LDIAM,8.2,mm,784,TA14
S0129,,SUMDIAM,21.6,mm,784,TA14
S0129,T01,LDIAM,8.5,mm,840,TA15
S0129,T02,LDIAM,4.9,mm,840,TA15
S0129,T03,LDIAM,8.2,mm,840,TA15
S0129,,SUMDIAM,21.6,mm,840,TA15
S0129,T01,LDIAM,8.5,mm,896,TA16
S0129,T02,LDIAM,4.9,mm,896,TA16
S0129,T03,LDIAM,8.2,mm,896,TA16
S0129,,SUMDIAM,21.6,mm,896,TA16
S0129,T01,LDIAM,8.5,mm,952,TA17
S0129,T02,LDIAM,4.9,mm,952,TA17
S0129,T03,LDIAM,8.2,mm,952,TA17
S0129,,SUMDIAM,21.6,mm,952,TA17
S0129,T01,LDIAM,8.5,mm,1008,TA18
S0129,T02,LDIAM,4.9,mm,1008,TA18
S0129,T03,LDIAM,8.2,mm,1008,TA18
S0129,,SUMDIAM,21.6,mm,1008,TA18
S0129,T01,LDIAM,8.5,mm,1064,TA19
S0129,T02,LDIAM,4.9,mm,1064,TA19
S0129,T03,LDIAM,8.2,mm,1064,TA19
S0129,,SUMDIAM,21.6,mm,1064,TA19
S0129,T01,LDIAM,8.5,mm,1120,TA20
S0129,T02,LDIAM,4.9,mm,1120,TA20
S0129,T03,LDIAM,8.2,mm,1120,TA20
S0129,,SUMDIAM,21.6,mm,1120,TA20
S0129,T01,LDIAM,8.5,mm,1176,TA21
S0129,T02,LDIAM,4.9,mm,1176,TA21
S0129,T03,LDIAM,8.2,mm,1176,TA21
S0129,,SUMDIAM,21.6,mm,1176,TA21
S0129,T01,LDIAM,8.5,mm,1232,TA22
S0129,T02,LDIAM,4.9,mm,1232,TA22
S0129,T03,LDIAM,8.2,mm,1232,TA22
S0129,,SUMDIAM,21.6,mm,1232,TA22
S0129,T01,LDIAM,8.5,mm,1288,TA23
S0129,T02,LDIAM,4.9,mm,1288,TA23
S0129,T03,LDIAM,8.2,mm,1288,TA23
S0129,,SUMDIAM,21.6,mm,1288,TA23
S0129,T01,LDIAM,8.5,mm,1344,TA24
S0129,T02,LDIAM,4.9,mm,1344,TA24
S0129,T03,LDIAM,8.2,mm,1344,TA24
S0129,,SUMDIAM,21.6,mm,1344,TA24
S0129,T01,LDIAM,8.5,mm,1400,TA25
S0129,T02,LDIAM,4.9,mm,1400,TA25
S0129,T03,LDIAM,8.2,mm,1400,TA25
S0129,,SUMDIAM,21.6,mm,1400,TA25
S0131,T01,LDIAM,41.4,mm,0,BASELINE
S0131,,SUMDIAM,41.4,mm,0,BASELINE
S0131,T01,LDIAM,21.5,mm,56,TA1
S0131,,SUMDIAM,21.5,mm,56,TA1
S0131,T01,LDIAM,1.7,mm,112,TA2
S0131,,SUMDIAM,1.7,mm,112,TA2
S0131,T01,LDIAM,1.7,mm,168,TA3
S0131,,SUMDIAM,1.7,mm,168,TA3
S0131,T01,LDIAM,1.7,mm,224,TA4
S0131,,SUMDIAM,1.7,mm,224,TA4
S0131,T01,LDIAM,1.7,mm,280,TA5
S0131,,SUMDIAM,1.7,mm,280,TA5
S0131,T01,LDIAM,1.7,mm,336,TA6
S0131,,SUMDIAM,1.7,mm,336,TA6
S0131,T01,LDIAM,1.7,mm,392,TA7
S0131,,SUMDIAM,1.7,mm,392,TA7
S0131,T01,LDIAM,1.7,mm,448,TA8
S0131,,SUMDIAM,1.7,mm,448,TA8
S0131,T01,LDIAM,1.7,mm,504,TA9
S0131,,SUMDIAM,1.7,mm,504,TA9
S0131,T01,LDIAM,1.7,mm,560,TA10
S0131,,SUMDIAM,1.7,mm,560,TA10
S0131,T01,LDIAM,1.7,mm,616,TA11
S0131,,SUMDIAM,1.7,mm,616,TA11
S0131,T01,LDIAM,1.7,mm,672,TA12
S0131,,SUMDIAM,1.7,mm,672,TA12
S0131,T01,LDIAM,1.7,mm,728,TA13
S0131,,SUMDIAM,1.7,mm,728,TA13
S0131,T01,LDIAM,1.7,mm,784,TA14
S0131,,SUMDIAM,1.7,mm,784,TA14
S0131,T01,LDIAM,1.7,mm,840,TA15
S0131,,SUMDIAM,1.7,mm,840,TA15
S0131,T01,LDIAM,1.7,mm,896,TA16
S0131,,SUMDIAM,1.7,mm,896,TA16
S0131,T01,LDIAM,1.7,mm,952,TA17
S0131,,SUMDIAM,1.7,mm,952,TA17
S0131,T01,LDIAM,1.7,mm,1008,TA18
S0131,,SUMDIAM,1.7,mm,1008,TA18
S0131,T01,LDIAM,1.7,mm,1064,TA19
S0131,,SUMDIAM,1.7,mm,1064,TA19
S0131,T01,LDIAM,1.7,mm,1120,TA20
S0131,,SUMDIAM,1.7,mm,1120,TA20
S0131,T01,LDIAM,1.7,mm,1176,TA21
S0131,,SUMDIAM,1.7,mm,1176,TA21
S0131,T01,LDIAM,1.7,mm,1232,TA22
S0131,,SUMDIAM,1.7,mm,1232,TA22
S0131,T01,LDIAM,1.7,mm,1288,TA23
S0131,,SUMDIAM,1.7,mm,1288,TA23
S0131,T01,LDIAM,1.7,mm,1344,TA24
S0131,,SUMDIAM,1.7,mm,1344,TA24
S0131,T01,LDIAM,1.7,mm,1400,TA25
S0131,,SUMDIAM,1.7,mm,1400,TA25
S0137,T01,LDIAM,36.7,mm,0,BASELINE
S0137,T02,LDIAM,20.0,mm,0,BASELINE
S0137,,SUMDIAM,56.7,mm,0,BASELINE
S0137,T01,LDIAM,28.7,mm,56,TA1
S0137,T02,LDIAM,15.6,mm,56,TA1
S0137,,SUMDIAM,44.3,mm,56,TA1
S0137,T01,LDIAM,20.7,mm,112,TA2
S0137,T02,LDIAM,11.3,mm,112,TA2
S0137,,SUMDIAM,32.0,mm,112,TA2
S0137,T01,LDIAM,20.7,mm,168,TA3
S0137,T02,LDIAM,11.3,mm,168,TA3
S0137,,SUMDIAM,32.0,mm,168,TA3
S0137,T01,LDIAM,20.7,mm,224,TA4
S0137,T02,LDIAM,11.3,mm,224,TA4
S0137,,SUMDIAM,32.0,mm,224,TA4
S0137,T01,LDIAM,20.7,mm,280,TA5
S0137,T02,LDIAM,11.3,mm,280,TA5
S0137,,SUMDIAM,32.0,mm,280,TA5
S0137,T01,LDIAM,20.7,mm,336,TA6
S0137,T02,LDIAM,11.3,mm,336,TA6
S0137,,SUMDIAM,32.0,mm,336,TA6
S0137,T01,LDIAM,20.7,mm,392,TA7
S0137,T02,LDIAM,11.3,mm,392,TA7
S0137,,SUMDIAM,32.0,mm,392,TA7
S0137,T01,LDIAM,20.7,mm,448,TA8
S0137,T02,LDIAM,11.3,mm,448,TA8
S0137,,SUMDIAM,32.0,mm,448,TA8
S0137,T01,LDIAM,20.7,mm,504,TA9
S0137,T02,LDIAM,11.3,mm,504,TA9
S0137,,SUMDIAM,32.0,mm,504,TA9
S0137,T01,LDIAM,30.8,mm,560,TA10
S0137,T02,LDIAM,16.8,mm,560,TA10
S0137,,SUMDIAM,47.6,mm,560,TA10
S0139,T01,LDIAM,45.0,mm,0,BASELINE
S0139,T02,LDIAM,57.5,mm,0,BASELINE
S0139,,SUMDIAM,102.5,mm,0,BASELINE
S0139,T01,LDIAM,32.8,mm,56,TA1
S0139,T02,LDIAM,41.9,mm,56,TA1
S0139,,SUMDIAM,74.6,mm,56,TA1
S0139,T01,LDIAM,20.5,mm,112,TA2
S0139,T02,LDIAM,26.2,mm,112,TA2
S0139,,SUMDIAM,46.7,mm,112,TA2
S0139,T01,LDIAM,20.5,mm,168,TA3
S0139,T02,LDIAM,26.2,mm,168,TA3
S0139,,SUMDIAM,46.7,mm,168,TA3
S0139,T01,LDIAM,20.5,mm,224,TA4
S0139,T02,LDIAM,26.2,mm,224,TA4
S0139,,SUMDIAM,46.7,mm,224,TA4
S0139,T01,LDIAM,20.5,mm,280,TA5
S0139,T02,LDIAM,26.2,mm,280,TA5
S0139,,SUMDIAM,46.7,mm,280,TA5
S0139,T01,LDIAM,20.5,mm,336,TA6
S0139,T02,LDIAM,26.2,mm,336,TA6
S0139,,SUMDIAM,46.7,mm,336,TA6
S0139,T01,LDIAM,20.5,mm,392,TA7
S0139,T02,LDIAM,26.2,mm,392,TA7
S0139,,SUMDIAM,46.7,mm,392,TA7
S0139,T01,LDIAM,20.5,mm,448,TA8
S0139,T02,LDIAM,26.2,mm,448,TA8
S0139,,SUMDIAM,46.7,mm,448,TA8
S0139,T01,LDIAM,20.5,mm,504,TA9
S0139,T02,LDIAM,26.2,mm,504,TA9
S0139,,SUMDIAM,46.7,mm,504,TA9
S0139,T01,LDIAM,20.5,mm,560,TA10
S0139,T02,LDIAM,26.2,mm,560,TA10
S0139,,SUMDIAM,46.7,mm,560,TA10
S0139,T01,LDIAM,20.5,mm,616,TA11
S0139,T02,LDIAM,26.2,mm,616,TA11
S0139,,SUMDIAM,46.7,mm,616,TA11
S0139,T01,LDIAM,20.5,mm,672,TA12
S0139,T02,LDIAM,26.2,mm,672,TA12
S0139,,SUMDIAM,46.7,mm,672,TA12
S0139,T01,LDIAM,20.5,mm,728,TA13
S0139,T02,LDIAM,26.2,mm,728,TA13
S0139,,SUMDIAM,46.7,mm,728,TA13
S0139,T01,LDIAM,20.5,mm,784,TA14
S0139,T02,LDIAM,26.2,mm,784,TA14
S0139,,SUMDIAM,46.7,mm,784,TA14
S0139,T01,LDIAM,20.5,mm,840,TA15
S0139,T02,LDIAM,26.2,mm,840,TA15
S0139,,SUMDIAM,46.7,mm,840,TA15
S0139,T01,LDIAM,20.5,mm,896,TA16
S0139,T02,LDIAM,26.2,mm,896,TA16
S0139,,SUMDIAM,46.7,mm,896,TA16
S0139,T01,LDIAM,20.5,mm,952,TA17
S0139,T02,LDIAM,26.2,mm,952,TA17
S0139,,SUMDIAM,46.7,mm,952,TA17
S0139,T01,LDIAM,20.5,mm,1008,TA18
S0139,T02,LDIAM,26.2,mm,1008,TA18
S0139,,SUMDIAM,46.7,mm,1008,TA18
S0139,T01,LDIAM,20.5,mm,1064,TA19
S0139,T02,LDIAM,26.2,mm,1064,TA19
S0139,,SUMDIAM,46.7,mm,1064,TA19
S0139,T01,LDIAM,20.5,mm,1120,TA20
S0139,T02,LDIAM,26.2,mm,1120,TA20
S0139,,SUMDIAM,46.7,mm,1120,TA20
S0139,T01,LDIAM,20.5,mm,1176,TA21
S0139,T02,LDIAM,26.2,mm,1176,TA21
S0139,,SUMDIAM,46.7,mm,1176,TA21
S0139,T01,LDIAM,20.5,mm,1232,TA22
S0139,T02,LDIAM,26.2,mm,1232,TA22
S0139,,SUMDIAM,46.7,mm,1232,TA22
S0139,T01,LDIAM,20.5,mm,1288,TA23
S0139,T02,LDIAM,26.2,mm,1288,TA23
S0139,,SUMDIAM,46.7,mm,1288,TA23
S0139,T01,LDIAM,20.5,mm,1344,TA24
S0139,T02,LDIAM,26.2,mm,1344,TA24
S0139,,SUMDIAM,46.7,mm,1344,TA24
S0140,T01,LDIAM,59.3,mm,0,BASELINE
S0140,T02,LDIAM,28.6,mm,0,BASELINE
S0140,,SUMDIAM,87.9,mm,0,BASELINE
S0140,T01,LDIAM,35.6,mm,56,TA1
S0140,T02,LDIAM,17.2,mm,56,TA1
S0140,,SUMDIAM,52.8,mm,56,TA1
S0140,T01,LDIAM,11.9,mm,112,TA2
S0140,T02,LDIAM,5.8,mm,112,TA2
S0140,,SUMDIAM,17.7,mm,112,TA2
S0140,T01,LDIAM,11.9,mm,168,TA3
S0140,T02,LDIAM,5.8,mm,168,TA3
S0140,,SUMDIAM,17.7,mm,168,TA3
S0145,T01,LDIAM,18.8,mm,0,BASELINE
S0145,T02,LDIAM,12.7,mm,0,BASELINE
S0145,,SUMDIAM,31.5,mm,0,BASELINE
S0145,T01,LDIAM,14.8,mm,56,TA1
S0145,T02,LDIAM,10.0,mm,56,TA1
S0145,,SUMDIAM,24.8,mm,56,TA1
S0145,T01,LDIAM,10.8,mm,112,TA2
S0145,T02,LDIAM,7.3,mm,112,TA2
S0145,,SUMDIAM,18.1,mm,112,TA2
S0149,T01,LDIAM,16.1,mm,0,BASELINE
S0149,T02,LDIAM,25.8,mm,0,BASELINE
S0149,,SUMDIAM,41.9,mm,0,BASELINE
S0149,T01,LDIAM,12.4,mm,56,TA1
S0149,T02,LDIAM,19.8,mm,56,TA1
S0149,,SUMDIAM,32.2,mm,56,TA1
S0149,T01,LDIAM,18.1,mm,112,TA2
S0149,T02,LDIAM,29.0,mm,112,TA2
S0149,,SUMDIAM,47.2,mm,112,TA2
S0152,T01,LDIAM,27.5,mm,0,BASELINE
S0152,T02,LDIAM,40.6,mm,0,BASELINE
S0152,T03,LDIAM,39.6,mm,0,BASELINE
S0152,,SUMDIAM,107.7,mm,0,BASELINE
S0152,T01,LDIAM,13.8,mm,56,TA1
S0152,T02,LDIAM,20.3,mm,56,TA1
S0152,T03,LDIAM,19.8,mm,56,TA1
S0152,,SUMDIAM,53.8,mm,56,TA1
S0152,T01,LDIAM,0.0,mm,112,TA2
S0152,T02,LDIAM,0.0,mm,112,TA2
S0152,T03,LDIAM,0.0,mm,112,TA2
S0152,,SUMDIAM,0.0,mm,112,TA2
S0152,T01,LDIAM,0.0,mm,168,TA3
S0152,T02,LDIAM,0.0,mm,168,TA3
S0152,T03,LDIAM,0.0,mm,168,TA3
S0152,,SUMDIAM,0.0,mm,168,TA3
S0152,T01,LDIAM,0.0,mm,224,TA4
S0152,T02,LDIAM,0.0,mm,224,TA4
S0152,T03,LDIAM,0.0,mm,224,TA4
S0152,,SUMDIAM,0.0,mm,224,TA4
S0152,T01,LDIAM,0.0,mm,280,TA5
S0152,T02,LDIAM,0.0,mm,280,TA5
S0152,T03,LDIAM,0.0,mm,280,TA5
S0152,,SUMDIAM,0.0,mm,280,TA5
S0152,T01,LDIAM,0.0,mm,336,TA6
S0152,T02,LDIAM,0.0,mm,336,TA6
S0152,T03,LDIAM,0.0,mm,336,TA6
S0152,,SUMDIAM,0.0,mm,336,TA6
S0152,T01,LDIAM,0.0,mm,392,TA7
S0152,T02,LDIAM,0.0,mm,392,TA7
S0152,T03,LDIAM,0.0,mm,392,TA7
S0152,,SUMDIAM,0.0,mm,392,TA7
S0152,T01,LDIAM,0.0,mm,448,TA8
S0152,T02,LDIAM,0.0,mm,448,TA8
S0152,T03,LDIAM,0.0,mm,448,TA8
S0152,,SUMDIAM,0.0,mm,448,TA8
S0152,T01,LDIAM,0.0,mm,504,TA9
S0152,T02,LDIAM,0.0,mm,504,TA9
S0152,T03,LDIAM,0.0,mm,504,TA9
S0152,,SUMDIAM,0.0,mm,504,TA9
S0152,T01,LDIAM,0.0,mm,560,TA10
S0152,T02,LDIAM,0.0,mm,560,TA10
S0152,T03,LDIAM,0.0,mm,560,TA10
S0152,,SUMDIAM,0.0,mm,560,TA10
S0152,T01,LDIAM,0.0,mm,616,TA11
S0152,T02,LDIAM,0.0,mm,616,TA11
S0152,T03,LDIAM,0.0,mm,616,TA11
S0152,,SUMDIAM,0.0,mm,616,TA11
S0152,T01,LDIAM,0.0,mm,672,TA12
S0152,T02,LDIAM,0.0,mm,672,TA12
S0152,T03,LDIAM,0.0,mm,672,TA12
S0152,,SUMDIAM,0.0,mm,672,TA12
S0152,T01,LDIAM,0.0,mm,728,TA13
S0152,T02,LDIAM,0.0,mm,728,TA13
S0152,T03,LDIAM,0.0,mm,728,TA13
S0152,,SUMDIAM,0.0,mm,728,TA13
S0152,T01,LDIAM,0.0,mm,784,TA14
S0152,T02,LDIAM,0.0,mm,784,TA14
S0152,T03,LDIAM,0.0,mm,784,TA14
S0152,,SUMDIAM,0.0,mm,784,TA14
S0152,T01,LDIAM,0.0,mm,840,TA15
S0152,T02,LDIAM,0.0,mm,840,TA15
S0152,T03,LDIAM,0.0,mm,840,TA15
S0152,,SUMDIAM,0.0,mm,840,TA15
S0152,T01,LDIAM,0.0,mm,896,TA16
S0152,T02,LDIAM,0.0,mm,896,TA16
S0152,T03,LDIAM,0.0,mm,896,TA16
S0152,,SUMDIAM,0.0,mm,896,TA16
S0152,T01,LDIAM,0.0,mm,952,TA17
S0152,T02,LDIAM,0.0,mm,952,TA17
S0152,T03,LDIAM,0.0,mm,952,TA17
S0152,,SUMDIAM,0.0,mm,952,TA17
S0152,T01,LDIAM,0.0,mm,1008,TA18
S0152,T02,LDIAM,0.0,mm,1008,TA18
S0152,T03,LDIAM,0.0,mm,1008,TA18
S0152,,SUMDIAM,0.0,mm,1008,TA18
S0152,T01,LDIAM,0.0,mm,1064,TA19
S0152,T02,LDIAM,0.0,mm,1064,TA19
S0152,T03,LDIAM,0.0,mm,1064,TA19
S0152,,SUMDIAM,0.0,mm,1064,TA19
S0152,T01,LDIAM,0.0,mm,1120,TA20
S0152,T02,LDIAM,0.0,mm,1120,TA20
S0152,T03,LDIAM,0.0,mm,1120,TA20
S0152,,SUMDIAM,0.0,mm,1120,TA20
S0152,T01,LDIAM,0.0,mm,1176,TA21
S0152,T02,LDIAM,0.0,mm,1176,TA21
S0152,T03,LDIAM,0.0,mm,1176,TA21
S0152,,SUMDIAM,0.0,mm,1176,TA21
S0152,T01,LDIAM,0.0,mm,1232,TA22
S0152,T02,LDIAM,0.0,mm,1232,TA22
S0152,T03,LDIAM,0.0,mm,1232,TA22
S0152,,SUMDIAM,0.0,mm,1232,TA22
S0152,T01,LDIAM,0.0,mm,1288,TA23
S0152,T02,LDIAM,0.0,mm,1288,TA23
S0152,T03,LDIAM,0.0,mm,1288,TA23
S0152,,SUMDIAM,0.0,mm,1288,TA23
S0155,T01,LDIAM,20.0,mm,0,BASELINE
S0155,T02,LDIAM,51.2,mm,0,BASELINE
S0155,T03,LDIAM,25.2,mm,0,BASELINE
S0155,T04,LDIAM,10.0,mm,0,BASELINE
S0155,,SUMDIAM,106.4,mm,0,BASELINE
S0155,T01,LDIAM,10.0,mm,56,TA1
S0155,T02,LDIAM,25.6,mm,56,TA1
S0155,T03,LDIAM,12.6,mm,56,TA1
S0155,T04,LDIAM,5.0,mm,56,TA1
S0155,,SUMDIAM,53.2,mm,56,TA1
S0155,T01,LDIAM,0.0,mm,112,TA2
S0155,T02,LDIAM,0.0,mm,112,TA2
S0155,T03,LDIAM,0.0,mm,112,TA2
S0155,T04,LDIAM,0.0,mm,112,TA2
S0155,,SUMDIAM,0.0,mm,112,TA2
S0155,T01,LDIAM,0.0,mm,168,TA3
S0155,T02,LDIAM,0.0,mm,168,TA3
S0155,T03,LDIAM,0.0,mm,168,TA3
S0155,T04,LDIAM,0.0,mm,168,TA3
S0155,,SUMDIAM,0.0,mm,168,TA3
S0155,T01,LDIAM,0.0,mm,224,TA4
S0155,T02,LDIAM,0.0,mm,224,TA4
S0155,T03,LDIAM,0.0,mm,224,TA4
S0155,T04,LDIAM,0.0,mm,224,TA4
S0155,,SUMDIAM,0.0,mm,224,TA4
S0155,T01,LDIAM,0.0,mm,280,TA5
S0155,T02,LDIAM,0.0,mm,280,TA5
S0155,T03,LDIAM,0.0,mm,280,TA5
S0155,T04,LDIAM,0.0,mm,280,TA5
S0155,,SUMDIAM,0.0,mm,280,TA5
S0155,T01,LDIAM,0.0,mm,336,TA6
S0155,T02,LDIAM,0.0,mm,336,TA6
S0155,T03,LDIAM,0.0,mm,336,TA6
S0155,T04,LDIAM,0.0,mm,336,TA6
S0155,,SUMDIAM,0.0,mm,336,TA6
S0155,T01,LDIAM,0.0,mm,392,TA7
S0155,T02,LDIAM,0.0,mm,392,TA7
S0155,T03,LDIAM,0.0,mm,392,TA7
S0155,T04,LDIAM,0.0,mm,392,TA7
S0155,,SUMDIAM,0.0,mm,392,TA7
S0155,T01,LDIAM,0.0,mm,448,TA8
S0155,T02,LDIAM,0.0,mm,448,TA8
S0155,T03,LDIAM,0.0,mm,448,TA8
S0155,T04,LDIAM,0.0,mm,448,TA8
S0155,,SUMDIAM,0.0,mm,448,TA8
S0155,T01,LDIAM,0.0,mm,504,TA9
S0155,T02,LDIAM,0.0,mm,504,TA9
S0155,T03,LDIAM,0.0,mm,504,TA9
S0155,T04,LDIAM,0.0,mm,504,TA9
S0155,,SUMDIAM,0.0,mm,504,TA9
S0155,T01,LDIAM,0.0,mm,560,TA10
S0155,T02,LDIAM,0.0,mm,560,TA10
S0155,T03,LDIAM,0.0,mm,560,TA10
S0155,T04,LDIAM,0.0,mm,560,TA10
S0155,,SUMDIAM,0.0,mm,560,TA10
S0155,T01,LDIAM,0.0,mm,616,TA11
S0155,T02,LDIAM,0.0,mm,616,TA11
S0155,T03,LDIAM,0.0,mm,616,TA11
S0155,T04,LDIAM,0.0,mm,616,TA11
S0155,,SUMDIAM,0.0,mm,616,TA11
S0155,T01,LDIAM,0.0,mm,672,TA12
S0155,T02,LDIAM,0.0,mm,672,TA12
S0155,T03,LDIAM,0.0,mm,672,TA12
S0155,T04,LDIAM,0.0,mm,672,TA12
S0155,,SUMDIAM,0.0,mm,672,TA12
S0155,T01,LDIAM,0.0,mm,728,TA13
S0155,T02,LDIAM,0.0,mm,728,TA13
S0155,T03,LDIAM,0.0,mm,728,TA13
S0155,T04,LDIAM,0.0,mm,728,TA13
S0155,,SUMDIAM,0.0,mm,728,TA13
S0155,T01,LDIAM,0.0,mm,784,TA14
S0155,T02,LDIAM,0.0,mm,784,TA14
S0155,T03,LDIAM,0.0,mm,784,TA14
S0155,T04,LDIAM,0.0,mm,784,TA14
S0155,,SUMDIAM,0.0,mm,784,TA14
S0155,T01,LDIAM,0.0,mm,840,TA15
S0155,T02,LDIAM,0.0,mm,840,TA15
S0155,T03,LDIAM,0.0,mm,840,TA15
S0155,T04,LDIAM,0.0,mm,840,TA15
S0155,,SUMDIAM,0.0,mm,840,TA15
S0155,T01,LDIAM,0.0,mm,896,TA16
S0155,T02,LDIAM,0.0,mm,896,TA16
S0155,T03,LDIAM,0.0,mm,896,TA16
S0155,T04,LDIAM,0.0,mm,896,TA16
S0155,,SUMDIAM,0.0,mm,896,TA16
S0155,T01,LDIAM,0.0,mm,952,TA17
S0155,T02,LDIAM,0.0,mm,952,TA17
S0155,T03,LDIAM,0.0,mm,952,TA17
S0155,T04,LDIAM,0.0,mm,952,TA17
S0155,,SUMDIAM,0.0,mm,952,TA17
S0155,T01,LDIAM,0.0,mm,1008,TA18
S0155,T02,LDIAM,0.0,mm,1008,TA18
S0155,T03,LDIAM,0.0,mm,1008,TA18
S0155,T04,LDIAM,0.0,mm,1008,TA18
S0155,,SUMDIAM,0.0,mm,1008,TA18
S0155,T01,LDIAM,0.0,mm,1064,TA19
S0155,T02,LDIAM,0.0,mm,1064,TA19
S0155,T03,LDIAM,0.0,mm,1064,TA19
S0155,T04,LDIAM,0.0,mm,1064,TA19
S0155,,SUMDIAM,0.0,mm,1064,TA19
S0155,T01,LDIAM,0.0,mm,1120,TA20
S0155,T02,LDIAM,0.0,mm,1120,TA20
S0155,T03,LDIAM,0.0,mm,1120,TA20
S0155,T04,LDIAM,0.0,mm,1120,TA20
S0155,,SUMDIAM,0.0,mm,1120,TA20
S0155,T01,LDIAM,0.0,mm,1176,TA21
S0155,T02,LDIAM,0.0,mm,1176,TA21
S0155,T03,LDIAM,0.0,mm,1176,TA21
S0155,T04,LDIAM,0.0,mm,1176,TA21
S0155,,SUMDIAM,0.0,mm,1176,TA21
S0155,T01,LDIAM,0.0,mm,1232,TA22
S0155,T02,LDIAM,0.0,mm,1232,TA22
S0155,T03,LDIAM,0.0,mm,1232,TA22
S0155,T04,LDIAM,0.0,mm,1232,TA22
S0155,,SUMDIAM,0.0,mm,1232,TA22
S0155,T01,LDIAM,0.0,mm,1288,TA23
S0155,T02,LDIAM,0.0,mm,1288,TA23
S0155,T03,LDIAM,0.0,mm,1288,TA23
S0155,T04,LDIAM,0.0,mm,1288,TA23
S0155,,SUMDIAM,0.0,mm,1288,TA23
S0156,T01,LDIAM,48.9,mm,0,BASELINE
S0156,T02,LDIAM,50.7,mm,0,BASELINE
S0156,T03,LDIAM,40.8,mm,0,BASELINE
S0156,,SUMDIAM,140.4,mm,0,BASELINE
S0156,T01,LDIAM,38.8,mm,56,TA1
S0156,T02,LDIAM,40.2,mm,56,TA1
S0156,T03,LDIAM,32.3,mm,56,TA1
S0156,,SUMDIAM,111.3,mm,56,TA1
S0156,T01,LDIAM,28.6,mm,112,TA2
S0156,T02,LDIAM,29.7,mm,112,TA2
S0156,T03,LDIAM,23.9,mm,112,TA2
S0156,,SUMDIAM,82.1,mm,112,TA2
S0156,T01,LDIAM,28.6,mm,168,TA3
S0156,T02,LDIAM,29.7,mm,168,TA3
S0156,T03,LDIAM,23.9,mm,168,TA3
S0156,,SUMDIAM,82.1,mm,168,TA3
S0156,T01,LDIAM,28.6,mm,224,TA4
S0156,T02,LDIAM,29.7,mm,224,TA4
S0156,T03,LDIAM,23.9,mm,224,TA4
S0156,,SUMDIAM,82.1,mm,224,TA4
S0156,T01,LDIAM,28.6,mm,280,TA5
S0156,T02,LDIAM,29.7,mm,280,TA5
S0156,T03,LDIAM,23.9,mm,280,TA5
S0156,,SUMDIAM,82.1,mm,280,TA5
S0156,T01,LDIAM,28.6,mm,336,TA6
S0156,T02,LDIAM,29.7,mm,336,TA6
S0156,T03,LDIAM,23.9,mm,336,TA6
S0156,,SUMDIAM,82.1,mm,336,TA6
S0156,T01,LDIAM,28.6,mm,392,TA7
S0156,T02,LDIAM,29.7,mm,392,TA7
S0156,T03,LDIAM,23.9,mm,392,TA7
S0156,,SUMDIAM,82.1,mm,392,TA7
S0156,T01,LDIAM,28.6,mm,448,TA8
S0156,T02,LDIAM,29.7,mm,448,TA8
S0156,T03,LDIAM,23.9,mm,448,TA8
S0156,,SUMDIAM,82.1,mm,448,TA8
S0156,T01,LDIAM,28.6,mm,504,TA9
S0156,T02,LDIAM,29.7,mm,504,TA9
S0156,T03,LDIAM,23.9,mm,504,TA9
S0156,,SUMDIAM,82.1,mm,504,TA9
S0156,T01,LDIAM,28.6,mm,560,TA10
S0156,T02,LDIAM,29.7,mm,560,TA10
S0156,T03,LDIAM,23.9,mm,560,TA10
S0156,,SUMDIAM,82.1,mm,560,TA10
S0156,T01,LDIAM,28.6,mm,616,TA11
S0156,T02,LDIAM,29.7,mm,616,TA11
S0156,T03,LDIAM,23.9,mm,616,TA11
S0156,,SUMDIAM,82.1,mm,616,TA11
S0156,T01,LDIAM,28.6,mm,672,TA12
S0156,T02,LDIAM,29.7,mm,672,TA12
S0156,T03,LDIAM,23.9,mm,672,TA12
S0156,,SUMDIAM,82.1,mm,672,TA12
S0156,T01,LDIAM,28.6,mm,728,TA13
S0156,T02,LDIAM,29.7,mm,728,TA13
S0156,T03,LDIAM,23.9,mm,728,TA13
S0156,,SUMDIAM,82.1,mm,728,TA13
S0156,T01,LDIAM,28.6,mm,784,TA14
S0156,T02,LDIAM,29.7,mm,784,TA14
S0156,T03,LDIAM,23.9,mm,784,TA14
S0156,,SUMDIAM,82.1,mm,784,TA14
S0156,T01,LDIAM,28.6,mm,840,TA15
S0156,T02,LDIAM,29.7,mm,840,TA15
S0156,T03,LDIAM,23.9,mm,840,TA15
S0156,,SUMDIAM,82.1,mm,840,TA15
S0156,T01,LDIAM,28.6,mm,896,TA16
S0156,T02,LDIAM,29.7,mm,896,TA16
S0156,T03,LDIAM,23.9,mm,896,TA16
S0156,,SUMDIAM,82.1,mm,896,TA16
S0156,T01,LDIAM,28.6,mm,952,TA17
S0156,T02,LDIAM,29.7,mm,952,TA17
S0156,T03,LDIAM,23.9,mm,952,TA17
S0156,,SUMDIAM,82.1,mm,952,TA17
S0156,T01,LDIAM,28.6,mm,1008,TA18
S0156,T02,LDIAM,29.7,mm,1008,TA18
S0156,T03,LDIAM,23.9,mm,1008,TA18
S0156,,SUMDIAM,82.1,mm,1008,TA18
S0156,T01,LDIAM,28.6,mm,1064,TA19
S0156,T02,LDIAM,29.7,mm,1064,TA19
S0156,T03,LDIAM,23.9,mm,1064,TA19
S0156,,SUMDIAM,82.1,mm,1064,TA19
S0156,T01,LDIAM,28.6,mm,1120,TA20
S0156,T02,LDIAM,29.7,mm,1120,TA20
S0156,T03,LDIAM,23.9,mm,1120,TA20
S0156,,SUMDIAM,82.1,mm,1120,TA20
S0156,T01,LDIAM,28.6,mm,1176,TA21
S0156,T02,LDIAM,29.7,mm,1176,TA21
S0156,T03,LDIAM,23.9,mm,1176,TA21
S0156,,SUMDIAM,82.1,mm,1176,TA21
S0156,T01,LDIAM,28.6,mm,1232,TA22
S0156,T02,LDIAM,29.7,mm,1232,TA22
S0156,T03,LDIAM,23.9,mm,1232,TA22
S0156,,SUMDIAM,82.1,mm,1232,TA22
S0156,T01,LDIAM,28.6,mm,1288,TA23
S0156,T02,LDIAM,29.7,mm,1288,TA23
S0156,T03,LDIAM,23.9,mm,1288,TA23
S0156,,SUMDIAM,82.1,mm,1288,TA23
S0160,T01,LDIAM,44.6,mm,0,BASELINE
S0160,T02,LDIAM,46.1,mm,0,BASELINE
S0160,T03,LDIAM,49.8,mm,0,BASELINE
S0160,T04,LDIAM,20.1,mm,0,BASELINE
S0160,T05,LDIAM,33.8,mm,0,BASELINE
S0160,,SUMDIAM,194.4,mm,0,BASELINE
S0160,T01,LDIAM,37.7,mm,56,TA1
S0160,T02,LDIAM,39.0,mm,56,TA1
S0160,T03,LDIAM,42.1,mm,56,TA1
S0160,T04,LDIAM,17.0,mm,56,TA1
S0160,T05,LDIAM,28.6,mm,56,TA1
S0160,,SUMDIAM,164.5,mm,56,TA1
S0160,T01,LDIAM,30.9,mm,112,TA2
S0160,T02,LDIAM,31.9,mm,112,TA2
S0160,T03,LDIAM,34.5,mm,112,TA2
S0160,T04,LDIAM,13.9,mm,112,TA2
S0160,T05,LDIAM,23.4,mm,112,TA2
S0160,,SUMDIAM,134.7,mm,112,TA2
S0160,T01,LDIAM,30.9,mm,168,TA3
S0160,T02,LDIAM,31.9,mm,168,TA3
S0160,T03,LDIAM,34.5,mm,168,TA3
S0160,T04,LDIAM,13.9,mm,168,TA3
S0160,T05,LDIAM,23.4,mm,168,TA3
S0160,,SUMDIAM,134.7,mm,168,TA3
S0163,T01,LDIAM,45.9,mm,0,BASELINE
S0163,T02,LDIAM,50.8,mm,0,BASELINE
S0163,T03,LDIAM,23.2,mm,0,BASELINE
S0163,,SUMDIAM,119.9,mm,0,BASELINE
S0163,T01,LDIAM,35.5,mm,56,TA1
S0163,T02,LDIAM,39.3,mm,56,TA1
S0163,T03,LDIAM,18.0,mm,56,TA1
S0163,,SUMDIAM,92.8,mm,56,TA1
S0163,T01,LDIAM,25.1,mm,112,TA2
S0163,T02,LDIAM,27.8,mm,112,TA2
S0163,T03,LDIAM,12.7,mm,112,TA2
S0163,,SUMDIAM,65.7,mm,112,TA2
S0163,T01,LDIAM,25.1,mm,168,TA3
S0163,T02,LDIAM,27.8,mm,168,TA3
S0163,T03,LDIAM,12.7,mm,168,TA3
S0163,,SUMDIAM,65.7,mm,168,TA3
S0163,T01,LDIAM,25.1,mm,224,TA4
S0163,T02,LDIAM,27.8,mm,224,TA4
S0163,T03,LDIAM,12.7,mm,224,TA4
S0163,,SUMDIAM,65.7,mm,224,TA4
S0163,T01,LDIAM,25.1,mm,280,TA5
S0163,T02,LDIAM,27.8,mm,280,TA5
S0163,T03,LDIAM,12.7,mm,280,TA5
S0163,,SUMDIAM,65.7,mm,280,TA5
S0163,T01,LDIAM,25.1,mm,336,TA6
S0163,T02,LDIAM,27.8,mm,336,TA6
S0163,T03,LDIAM,12.7,mm,336,TA6
S0163,,SUMDIAM,65.7,mm,336,TA6
S0163,T01,LDIAM,25.1,mm,392,TA7
S0163,T02,LDIAM,27.8,mm,392,TA7
S0163,T03,LDIAM,12.7,mm,392,TA7
S0163,,SUMDIAM,65.7,mm,392,TA7
S0163,T01,LDIAM,25.1,mm,448,TA8
S0163,T02,LDIAM,27.8,mm,448,TA8
S0163,T03,LDIAM,12.7,mm,448,TA8
S0163,,SUMDIAM,65.7,mm,448,TA8
S0163,T01,LDIAM,25.1,mm,504,TA9
S0163,T02,LDIAM,27.8,mm,504,TA9
S0163,T03,LDIAM,12.7,mm,504,TA9
S0163,,SUMDIAM,65.7,mm,504,TA9
S0163,T01,LDIAM,25.1,mm,560,TA10
S0163,T02,LDIAM,27.8,mm,560,TA10
S0163,T03,LDIAM,12.7,mm,560,TA10
S0163,,SUMDIAM,65.7,mm,560,TA10
S0163,T01,LDIAM,25.1,mm,616,TA11
S0163,T02,LDIAM,27.8,mm,616,TA11
S0163,T03,LDIAM,12.7,mm,616,TA11
S0163,,SUMDIAM,65.7,mm,616,TA11
S0163,T01,LDIAM,25.1,mm,672,TA12
S0163,T02,LDIAM,27.8,mm,672,TA12
S0163,T03,LDIAM,12.7,mm,672,TA12
S0163,,SUMDIAM,65.7,mm,672,TA12
S0163,T01,LDIAM,25.1,mm,728,TA13
S0163,T02,LDIAM,27.8,mm,728,TA13
S0163,T03,LDIAM,12.7,mm,728,TA13
S0163,,SUMDIAM,65.7,mm,728,TA13
S0163,T01,LDIAM,25.1,mm,784,TA14
S0163,T02,LDIAM,27.8,mm,784,TA14
S0163,T03,LDIAM,12.7,mm,784,TA14
S0163,,SUMDIAM,65.7,mm,784,TA14
S0163,T01,LDIAM,25.1,mm,840,TA15
S0163,T02,LDIAM,27.8,mm,840,TA15
S0163,T03,LDIAM,12.7,mm,840,TA15
S0163,,SUMDIAM,65.7,mm,840,TA15
S0163,T01,LDIAM,25.1,mm,896,TA16
S0163,T02,LDIAM,27.8,mm,896,TA16
S0163,T03,LDIAM,12.7,mm,896,TA16
S0163,,SUMDIAM,65.7,mm,896,TA16
S0163,T01,LDIAM,25.1,mm,952,TA17
S0163,T02,LDIAM,27.8,mm,952,TA17
S0163,T03,LDIAM,12.7,mm,952,TA17
S0163,,SUMDIAM,65.7,mm,952,TA17
S0163,T01,LDIAM,25.1,mm,1008,TA18
S0163,T02,LDIAM,27.8,mm,1008,TA18
S0163,T03,LDIAM,12.7,mm,1008,TA18
S0163,,SUMDIAM,65.7,mm,1008,TA18
S0163,T01,LDIAM,25.1,mm,1064,TA19
S0163,T02,LDIAM,27.8,mm,1064,TA19
S0163,T03,LDIAM,12.7,mm,1064,TA19
S0163,,SUMDIAM,65.7,mm,1064,TA19
S0163,T01,LDIAM,25.1,mm,1120,TA20
S0163,T02,LDIAM,27.8,mm,1120,TA20
S0163,T03,LDIAM,12.7,mm,1120,TA20
S0163,,SUMDIAM,65.7,mm,1120,TA20
S0163,T01,LDIAM,25.1,mm,1176,TA21
S0163,T02,LDIAM,27.8,mm,1176,TA21
S0163,T03,LDIAM,12.7,mm,1176,TA21
S0163,,SUMDIAM,65.7,mm,1176,TA21
S0163,T01,LDIAM,25.1,mm,1232,TA22
S0163,T02,LDIAM,27.8,mm,1232,TA22
S0163,T03,LDIAM,12.7,mm,1232,TA22
S0163,,SUMDIAM,65.7,mm,1232,TA22
S0166,T01,LDIAM,28.2,mm,0,BASELINE
S0166,T02,LDIAM,16.4,mm,0,BASELINE
S0166,T03,LDIAM,41.1,mm,0,BASELINE
S0166,T04,LDIAM,43.7,mm,0,BASELINE
S0166,,SUMDIAM,129.4,mm,0,BASELINE
S0166,T01,LDIAM,26.1,mm,56,TA1
S0166,T02,LDIAM,15.2,mm,56,TA1
S0166,T03,LDIAM,38.1,mm,56,TA1
S0166,T04,LDIAM,40.5,mm,56,TA1
S0166,,SUMDIAM,119.9,mm,56,TA1
S0166,T01,LDIAM,24.1,mm,112,TA2
S0166,T02,LDIAM,14.0,mm,112,TA2
S0166,T03,LDIAM,35.1,mm,112,TA2
S0166,T04,LDIAM,37.3,mm,112,TA2
S0166,,SUMDIAM,110.4,mm,112,TA2
S0166,T01,LDIAM,24.1,mm,168,TA3
S0166,T02,LDIAM,14.0,mm,168,TA3
S0166,T03,LDIAM,35.1,mm,168,TA3
S0166,T04,LDIAM,37.3,mm,168,TA3
S0166,,SUMDIAM,110.4,mm,168,TA3
S0166,T01,LDIAM,24.1,mm,224,TA4
S0166,T02,LDIAM,14.0,mm,224,TA4
S0166,T03,LDIAM,35.1,mm,224,TA4
S0166,T04,LDIAM,37.3,mm,224,TA4
S0166,,SUMDIAM,110.4,mm,224,TA4
S0166,T01,LDIAM,24.1,mm,280,TA5
S0166,T02,LDIAM,14.0,mm,280,TA5
S0166,T03,LDIAM,35.1,mm,280,TA5
S0166,T04,LDIAM,37.3,mm,280,TA5
S0166,,SUMDIAM,110.4,mm,280,TA5
S0166,T01,LDIAM,24.1,mm,336,TA6
S0166,T02,LDIAM,14.0,mm,336,TA6
S0166,T03,LDIAM,35.1,mm,336,TA6
S0166,T04,LDIAM,37.3,mm,336,TA6
S0166,,SUMDIAM,110.4,mm,336,TA6
S0166,T01,LDIAM,24.1,mm,392,TA7
S0166,T02,LDIAM,14.0,mm,392,TA7
S0166,T03,LDIAM,35.1,mm,392,TA7
S0166,T04,LDIAM,37.3,mm,392,TA7
S0166,,SUMDIAM,110.4,mm,392,TA7
S0166,T01,LDIAM,24.1,mm,448,TA8
S0166,T02,LDIAM,14.0,mm,448,TA8
S0166,T03,LDIAM,35.1,mm,448,TA8
S0166,T04,LDIAM,37.3,mm,448,TA8
S0166,,SUMDIAM,110.4,mm,448,TA8
S0166,T01,LDIAM,24.1,mm,504,TA9
S0166,T02,LDIAM,14.0,mm,504,TA9
S0166,T03,LDIAM,35.1,mm,504,TA9
S0166,T04,LDIAM,37.3,mm,504,TA9
S0166,,SUMDIAM,110.4,mm,504,TA9
S0166,T01,LDIAM,24.1,mm,560,TA10
S0166,T02,LDIAM,14.0,mm,560,TA10
S0166,T03,LDIAM,35.1,mm,560,TA10
S0166,T04,LDIAM,37.3,mm,560,TA10
S0166,,SUMDIAM,110.4,mm,560,TA10
S0166,T01,LDIAM,24.1,mm,616,TA11
S0166,T02,LDIAM,14.0,mm,616,TA11
S0166,T03,LDIAM,35.1,mm,616,TA11
S0166,T04,LDIAM,37.3,mm,616,TA11
S0166,,SUMDIAM,110.4,mm,616,TA11
S0166,T01,LDIAM,24.1,mm,672,TA12
S0166,T02,LDIAM,14.0,mm,672,TA12
S0166,T03,LDIAM,35.1,mm,672,TA12
S0166,T04,LDIAM,37.3,mm,672,TA12
S0166,,SUMDIAM,110.4,mm,672,TA12
S0166,T01,LDIAM,24.1,mm,728,TA13
S0166,T02,LDIAM,14.0,mm,728,TA13
S0166,T03,LDIAM,35.1,mm,728,TA13
S0166,T04,LDIAM,37.3,mm,728,TA13
S0166,,SUMDIAM,110.4,mm,728,TA13
S0166,T01,LDIAM,24.1,mm,784,TA14
S0166,T02,LDIAM,14.0,mm,784,TA14
S0166,T03,LDIAM,35.1,mm,784,TA14
S0166,T04,LDIAM,37.3,mm,784,TA14
S0166,,SUMDIAM,110.4,mm,784,TA14
S0166,T01,LDIAM,24.1,mm,840,TA15
S0166,T02,LDIAM,14.0,mm,840,TA15
S0166,T03,LDIAM,35.1,mm,840,TA15
S0166,T04,LDIAM,37.3,mm,840,TA15
S0166,,SUMDIAM,110.4,mm,840,TA15
S0166,T01,LDIAM,24.1,mm,896,TA16
S0166,T02,LDIAM,14.0,mm,896,TA16
S0166,T03,LDIAM,35.1,mm,896,TA16
S0166,T04,LDIAM,37.3,mm,896,TA16
S0166,,SUMDIAM,110.4,mm,896,TA16
S0166,T01,LDIAM,24.1,mm,952,TA17
S0166,T02,LDIAM,14.0,mm,952,TA17
S0166,T03,LDIAM,35.1,mm,952,TA17
S0166,T04,LDIAM,37.3,mm,952,TA17
S0166,,SUMDIAM,110.4,mm,952,TA17
S0166,T01,LDIAM,24.1,mm,1008,TA18
S0166,T02,LDIAM,14.0,mm,1008,TA18
S0166,T03,LDIAM,35.1,mm,1008,TA18
S0166,T04,LDIAM,37.3,mm,1008,TA18
S0166,,SUMDIAM,110.4,mm,1008,TA18
S0166,T01,LDIAM,24.1,mm,1064,TA19
S0166,T02,LDIAM,14.0,mm,1064,TA19
S0166,T03,LDIAM,35.1,mm,1064,TA19
S0166,T04,LDIAM,37.3,mm,1064,TA19
S0166,,SUMDIAM,110.4,mm,1064,TA19
S0166,T01,LDIAM,24.1,mm,1120,TA20
S0166,T02,LDIAM,14.0,mm,1120,TA20
S0166,T03,LDIAM,35.1,mm,1120,TA20
S0166,T04,LDIAM,37.3,mm,1120,TA20
S0166,,SUMDIAM,110.4,mm,1120,TA20
S0166,T01,LDIAM,35.1,mm,1176,TA21
S0166,T02,LDIAM,20.4,mm,1176,TA21
S0166,T03,LDIAM,51.1,mm,1176,TA21
S0166,T04,LDIAM,54.4,mm,1176,TA21
S0166,,SUMDIAM,161.0,mm,1176,TA21
S0167,T01,LDIAM,59.9,mm,0,BASELINE
S0167,T02,LDIAM,21.3,mm,0,BASELINE
S0167,T03,LDIAM,55.4,mm,0,BASELINE
S0167,,SUMDIAM,136.6,mm,0,BASELINE
S0167,T01,LDIAM,50.6,mm,56,TA1
S0167,T02,LDIAM,18.0,mm,56,TA1
S0167,T03,LDIAM,46.8,mm,56,TA1
S0167,,SUMDIAM,115.4,mm,56,TA1
S0167,T01,LDIAM,41.3,mm,112,TA2
S0167,T02,LDIAM,14.7,mm,112,TA2
S0167,T03,LDIAM,38.2,mm,112,TA2
S0167,,SUMDIAM,94.2,mm,112,TA2
S0171,T01,LDIAM,22.7,mm,0,BASELINE
S0171,T02,LDIAM,50.4,mm,0,BASELINE
S0171,T03,LDIAM,39.5,mm,0,BASELINE
S0171,,SUMDIAM,112.6,mm,0,BASELINE
S0171,T01,LDIAM,26.3,mm,56,TA1
S0171,T02,LDIAM,58.5,mm,56,TA1
S0171,T03,LDIAM,45.8,mm,56,TA1
S0171,,SUMDIAM,130.6,mm,56,TA1
S0171,T01,LDIAM,30.0,mm,112,TA2
S0171,T02,LDIAM,66.5,mm,112,TA2
S0171,T03,LDIAM,52.1,mm,112,TA2
S0171,,SUMDIAM,148.6,mm,112,TA2
S0171,T01,LDIAM,30.0,mm,168,TA3
S0171,T02,LDIAM,66.5,mm,168,TA3
S0171,T03,LDIAM,52.1,mm,168,TA3
S0171,,SUMDIAM,148.6,mm,168,TA3
S0171,T01,LDIAM,30.0,mm,224,TA4
S0171,T02,LDIAM,66.5,mm,224,TA4
S0171,T03,LDIAM,52.1,mm,224,TA4
S0171,,SUMDIAM,148.6,mm,224,TA4
S0171,T01,LDIAM,30.0,mm,280,TA5
S0171,T02,LDIAM,66.5,mm,280,TA5
S0171,T03,LDIAM,52.1,mm,280,TA5
S0171,,SUMDIAM,148.6,mm,280,TA5
S0171,T01,LDIAM,30.0,mm,336,TA6
S0171,T02,LDIAM,66.5,mm,336,TA6
S0171,T03,LDIAM,52.1,mm,336,TA6
S0171,,SUMDIAM,148.6,mm,336,TA6
S0171,T01,LDIAM,30.0,mm,392,TA7
S0171,T02,LDIAM,66.5,mm,392,TA7
S0171,T03,LDIAM,52.1,mm,392,TA7
S0171,,SUMDIAM,148.6,mm,392,TA7
S0171,T01,LDIAM,30.0,mm,448,TA8
S0171,T02,LDIAM,66.5,mm,448,TA8
S0171,T03,LDIAM,52.1,mm,448,TA8
S0171,,SUMDIAM,148.6,mm,448,TA8
S0171,T01,LDIAM,30.0,mm,504,TA9
S0171,T02,LDIAM,66.5,mm,504,TA9
S0171,T03,LDIAM,52.1,mm,504,TA9
S0171,,SUMDIAM,148.6,mm,504,TA9
S0171,T01,LDIAM,30.0,mm,560,TA10
S0171,T02,LDIAM,66.5,mm,560,TA10
S0171,T03,LDIAM,52.1,mm,560,TA10
S0171,,SUMDIAM,148.6,mm,560,TA10
S0171,T01,LDIAM,30.0,mm,616,TA11
S0171,T02,LDIAM,66.5,mm,616,TA11
S0171,T03,LDIAM,52.1,mm,616,TA11
S0171,,SUMDIAM,148.6,mm,616,TA11
S0171,T01,LDIAM,30.0,mm,672,TA12
S0171,T02,LDIAM,66.5,mm,672,TA12
S0171,T03,LDIAM,52.1,mm,672,TA12
S0171,,SUMDIAM,148.6,mm,672,TA12
S0171,T01,LDIAM,30.0,mm,728,TA13
S0171,T02,LDIAM,66.5,mm,728,TA13
S0171,T03,LDIAM,52.1,mm,728,TA13
S0171,,SUMDIAM,148.6,mm,728,TA13
S0171,T01,LDIAM,30.0,mm,784,TA14
S0171,T02,LDIAM,66.5,mm,784,TA14
S0171,T03,LDIAM,52.1,mm,784,TA14
S0171,,SUMDIAM,148.6,mm,784,TA14
S0171,T01,LDIAM,30.0,mm,840,TA15
S0171,T02,LDIAM,66.5,mm,840,TA15
S0171,T03,LDIAM,52.1,mm,840,TA15
S0171,,SUMDIAM,148.6,mm,840,TA15
S0171,T01,LDIAM,30.0,mm,896,TA16
S0171,T02,LDIAM,66.5,mm,896,TA16
S0171,T03,LDIAM,52.1,mm,896,TA16
S0171,,SUMDIAM,148.6,mm,896,TA16
S0171,T01,LDIAM,30.0,mm,952,TA17
S0171,T02,LDIAM,66.5,mm,952,TA17
S0171,T03,LDIAM,52.1,mm,952,TA17
S0171,,SUMDIAM,148.6,mm,952,TA17
S0171,T01,LDIAM,30.0,mm,1008,TA18
S0171,T02,LDIAM,66.5,mm,1008,TA18
S0171,T03,LDIAM,52.1,mm,1008,TA18
S0171,,SUMDIAM,148.6,mm,1008,TA18
S0171,T01,LDIAM,30.0,mm,1064,TA19
S0171,T02,LDIAM,66.5,mm,1064,TA19
S0171,T03,LDIAM,52.1,mm,1064,TA19
S0171,,SUMDIAM,148.6,mm,1064,TA19
S0171,T01,LDIAM,30.0,mm,1120,TA20
S0171,T02,LDIAM,66.5,mm,1120,TA20
S0171,T03,LDIAM,52.1,mm,1120,TA20
S0171,,SUMDIAM,148.6,mm,1120,TA20
S0171,T01,LDIAM,30.0,mm,1176,TA21
S0171,T02,LDIAM,66.5,mm,1176,TA21
S0171,T03,LDIAM,52.1,mm,1176,TA21
S0171,,SUMDIAM,148.6,mm,1176,TA21
S0171,T01,LDIAM,30.0,mm,1232,TA22
S0171,T02,LDIAM,66.5,mm,1232,TA22
S0171,T03,LDIAM,52.1,mm,1232,TA22
S0171,,SUMDIAM,148.6,mm,1232,TA22
S0172,T01,LDIAM,50.2,mm,0,BASELINE
S0172,,SUMDIAM,50.2,mm,0,BASELINE
S0172,T01,LDIAM,51.4,mm,56,TA1
S0172,,SUMDIAM,51.4,mm,56,TA1
S0172,T01,LDIAM,52.7,mm,112,TA2
S0172,,SUMDIAM,52.7,mm,112,TA2
S0172,T01,LDIAM,52.7,mm,168,TA3
S0172,,SUMDIAM,52.7,mm,168,TA3
S0172,T01,LDIAM,52.7,mm,224,TA4
S0172,,SUMDIAM,52.7,mm,224,TA4
S0172,T01,LDIAM,52.7,mm,280,TA5
S0172,,SUMDIAM,52.7,mm,280,TA5
S0172,T01,LDIAM,52.7,mm,336,TA6
S0172,,SUMDIAM,52.7,mm,336,TA6
S0172,T01,LDIAM,52.7,mm,392,TA7
S0172,,SUMDIAM,52.7,mm,392,TA7
S0172,T01,LDIAM,52.7,mm,448,TA8
S0172,,SUMDIAM,52.7,mm,448,TA8
S0172,T01,LDIAM,52.7,mm,504,TA9
S0172,,SUMDIAM,52.7,mm,504,TA9
S0172,T01,LDIAM,52.7,mm,560,TA10
S0172,,SUMDIAM,52.7,mm,560,TA10
S0172,T01,LDIAM,52.7,mm,616,TA11
S0172,,SUMDIAM,52.7,mm,616,TA11
S0172,T01,LDIAM,52.7,mm,672,TA12
S0172,,SUMDIAM,52.7,mm,672,TA12
S0172,T01,LDIAM,52.7,mm,728,TA13
S0172,,SUMDIAM,52.7,mm,728,TA13
S0172,T01,LDIAM,52.7,mm,784,TA14
S0172,,SUMDIAM,52.7,mm,784,TA14
S0172,T01,LDIAM,52.7,mm,840,TA15
S0172,,SUMDIAM,52.7,mm,840,TA15
S0172,T01,LDIAM,52.7,mm,896,TA16
S0172,,SUMDIAM,52.7,mm,896,TA16
S0172,T01,LDIAM,52.7,mm,952,TA17
S0172,,SUMDIAM,52.7,mm,952,TA17
S0172,T01,LDIAM,52.7,mm,1008,TA18
S0172,,SUMDIAM,52.7,mm,1008,TA18
S0172,T01,LDIAM,52.7,mm,1064,TA19
S0172,,SUMDIAM,52.7,mm,1064,TA19
S0172,T01,LDIAM,52.7,mm,1120,TA20
S0172,,SUMDIAM,52.7,mm,1120,TA20
S0172,T01,LDIAM,52.7,mm,1176,TA21
S0172,,SUMDIAM,52.7,mm,1176,TA21
S0172,T01,LDIAM,52.7,mm,1232,TA22
S0172,,SUMDIAM,52.7,mm,1232,TA22
S0173,T01,LDIAM,54.6,mm,0,BASELINE
S0173,,SUMDIAM,54.6,mm,0,BASELINE
S0173,T01,LDIAM,52.1,mm,56,TA1
S0173,,SUMDIAM,52.1,mm,56,TA1
S0173,T01,LDIAM,49.5,mm,112,TA2
S0173,,SUMDIAM,49.5,mm,112,TA2
S0173,T01,LDIAM,49.5,mm,168,TA3
S0173,,SUMDIAM,49.5,mm,168,TA3
S0173,T01,LDIAM,49.5,mm,224,TA4
S0173,,SUMDIAM,49.5,mm,224,TA4
S0173,T01,LDIAM,49.5,mm,280,TA5
S0173,,SUMDIAM,49.5,mm,280,TA5
S0173,T01,LDIAM,49.5,mm,336,TA6
S0173,,SUMDIAM,49.5,mm,336,TA6
S0173,T01,LDIAM,49.5,mm,392,TA7
S0173,,SUMDIAM,49.5,mm,392,TA7
S0173,T01,LDIAM,49.5,mm,448,TA8
S0173,,SUMDIAM,49.5,mm,448,TA8
S0173,T01,LDIAM,49.5,mm,504,TA9
S0173,,SUMDIAM,49.5,mm,504,TA9
S0173,T01,LDIAM,49.5,mm,560,TA10
S0173,,SUMDIAM,49.5,mm,560,TA10
S0173,T01,LDIAM,49.5,mm,616,TA11
S0173,,SUMDIAM,49.5,mm,616,TA11
S0173,T01,LDIAM,49.5,mm,672,TA12
S0173,,SUMDIAM,49.5,mm,672,TA12
S0173,T01,LDIAM,49.5,mm,728,TA13
S0173,,SUMDIAM,49.5,mm,728,TA13
S0173,T01,LDIAM,49.5,mm,784,TA14
S0173,,SUMDIAM,49.5,mm,784,TA14
S0173,T01,LDIAM,49.5,mm,840,TA15
S0173,,SUMDIAM,49.5,mm,840,TA15
S0173,T01,LDIAM,49.5,mm,896,TA16
S0173,,SUMDIAM,49.5,mm,896,TA16
S0173,T01,LDIAM,49.5,mm,952,TA17
S0173,,SUMDIAM,49.5,mm,952,TA17
S0173,T01,LDIAM,49.5,mm,1008,TA18
S0173,,SUMDIAM,49.5,mm,1008,TA18
S0173,T01,LDIAM,49.5,mm,1064,TA19
S0173,,SUMDIAM,49.5,mm,1064,TA19
S0173,T01,LDIAM,49.5,mm,1120,TA20
S0173,,SUMDIAM,49.5,mm,1120,TA20
S0173,T01,LDIAM,49.5,mm,1176,TA21
S0173,,SUMDIAM,49.5,mm,1176,TA21
S0173,T01,LDIAM,49.5,mm,1232,TA22
S0173,,SUMDIAM,49.5,mm,1232,TA22
S0174,T01,LDIAM,29.3,mm,0,BASELINE
S0174,T02,LDIAM,15.2,mm,0,BASELINE
S0174,T03,LDIAM,55.4,mm,0,BASELINE
S0174,T04,LDIAM,42.7,mm,0,BASELINE
S0174,T05,LDIAM,39.6,mm,0,BASELINE
S0174,,SUMDIAM,182.2,mm,0,BASELINE
S0174,T01,LDIAM,27.0,mm,56,TA1
S0174,T02,LDIAM,14.0,mm,56,TA1
S0174,T03,LDIAM,51.1,mm,56,TA1
S0174,T04,LDIAM,39.4,mm,56,TA1
S0174,T05,LDIAM,36.5,mm,56,TA1
S0174,,SUMDIAM,167.9,mm,56,TA1
S0178,T01,LDIAM,59.2,mm,0,BASELINE
S0178,T02,LDIAM,36.1,mm,0,BASELINE
S0178,,SUMDIAM,95.3,mm,0,BASELINE
S0178,T01,LDIAM,62.1,mm,56,TA1
S0178,T02,LDIAM,37.9,mm,56,TA1
S0178,,SUMDIAM,100.0,mm,56,TA1
S0178,T01,LDIAM,65.1,mm,112,TA2
S0178,T02,LDIAM,39.7,mm,112,TA2
S0178,,SUMDIAM,104.8,mm,112,TA2
S0178,T01,LDIAM,65.1,mm,168,TA3
S0178,T02,LDIAM,39.7,mm,168,TA3
S0178,,SUMDIAM,104.8,mm,168,TA3
S0178,T01,LDIAM,65.1,mm,224,TA4
S0178,T02,LDIAM,39.7,mm,224,TA4
S0178,,SUMDIAM,104.8,mm,224,TA4
S0178,T01,LDIAM,65.1,mm,280,TA5
S0178,T02,LDIAM,39.7,mm,280,TA5
S0178,,SUMDIAM,104.8,mm,280,TA5
S0178,T01,LDIAM,65.1,mm,336,TA6
S0178,T02,LDIAM,39.7,mm,336,TA6
S0178,,SUMDIAM,104.8,mm,336,TA6
S0180,T01,LDIAM,47.7,mm,0,BASELINE
S0180,,SUMDIAM,47.7,mm,0,BASELINE
S0180,T01,LDIAM,50.2,mm,56,TA1
S0180,,SUMDIAM,50.2,mm,56,TA1
S0180,T01,LDIAM,52.7,mm,112,TA2
S0180,,SUMDIAM,52.7,mm,112,TA2
S0180,T01,LDIAM,52.7,mm,168,TA3
S0180,,SUMDIAM,52.7,mm,168,TA3
S0180,T01,LDIAM,52.7,mm,224,TA4
S0180,,SUMDIAM,52.7,mm,224,TA4
S0180,T01,LDIAM,52.7,mm,280,TA5
S0180,,SUMDIAM,52.7,mm,280,TA5
S0180,T01,LDIAM,52.7,mm,336,TA6
S0180,,SUMDIAM,52.7,mm,336,TA6
S0180,T01,LDIAM,52.7,mm,392,TA7
S0180,,SUMDIAM,52.7,mm,392,TA7
S0180,T01,LDIAM,52.7,mm,448,TA8
S0180,,SUMDIAM,52.7,mm,448,TA8
S0180,T01,LDIAM,69.2,mm,504,TA9
S0180,,SUMDIAM,69.2,mm,504,TA9
S0181,T01,LDIAM,30.6,mm,0,BASELINE
S0181,T02,LDIAM,42.4,mm,0,BASELINE
S0181,T03,LDIAM,38.9,mm,0,BASELINE
S0181,T04,LDIAM,39.8,mm,0,BASELINE
S0181,T05,LDIAM,44.5,mm,0,BASELINE
S0181,,SUMDIAM,196.2,mm,0,BASELINE
S0181,T01,LDIAM,26.7,mm,56,TA1
S0181,T02,LDIAM,37.0,mm,56,TA1
S0181,T03,LDIAM,33.9,mm,56,TA1
S0181,T04,LDIAM,34.7,mm,56,TA1
S0181,T05,LDIAM,38.8,mm,56,TA1
S0181,,SUMDIAM,171.2,mm,56,TA1
S0181,T01,LDIAM,22.8,mm,112,TA2
S0181,T02,LDIAM,31.6,mm,112,TA2
S0181,T03,LDIAM,29.0,mm,112,TA2
S0181,T04,LDIAM,29.6,mm,112,TA2
S0181,T05,LDIAM,33.1,mm,112,TA2
S0181,,SUMDIAM,146.1,mm,112,TA2
S0181,T01,LDIAM,22.8,mm,168,TA3
S0181,T02,LDIAM,31.6,mm,168,TA3
S0181,T03,LDIAM,29.0,mm,168,TA3
S0181,T04,LDIAM,29.6,mm,168,TA3
S0181,T05,LDIAM,33.1,mm,168,TA3
S0181,,SUMDIAM,146.1,mm,168,TA3
S0181,T01,LDIAM,22.8,mm,224,TA4
S0181,T02,LDIAM,31.6,mm,224,TA4
S0181,T03,LDIAM,29.0,mm,224,TA4
S0181,T04,LDIAM,29.6,mm,224,TA4
S0181,T05,LDIAM,33.1,mm,224,TA4
S0181,,SUMDIAM,146.1,mm,224,TA4
S0181,T01,LDIAM,22.8,mm,280,TA5
S0181,T02,LDIAM,31.6,mm,280,TA5
S0181,T03,LDIAM,29.0,mm,280,TA5
S0181,T04,LDIAM,29.6,mm,280,TA5
S0181,T05,LDIAM,33.1,mm,280,TA5
S0181,,SUMDIAM,146.1,mm,280,TA5
S0183,T01,LDIAM,43.8,mm,0,BASELINE
S0183,T02,LDIAM,12.7,mm,0,BASELINE
S0183,T03,LDIAM,50.5,mm,0,BASELINE
S0183,T04,LDIAM,49.8,mm,0,BASELINE
S0183,T05,LDIAM,14.7,mm,0,BASELINE
S0183,,SUMDIAM,171.5,mm,0,BASELINE
S0183,T01,LDIAM,47.7,mm,56,TA1
S0183,T02,LDIAM,13.8,mm,56,TA1
S0183,T03,LDIAM,55.0,mm,56,TA1
S0183,T04,LDIAM,54.2,mm,56,TA1
S0183,T05,LDIAM,16.0,mm,56,TA1
S0183,,SUMDIAM,186.7,mm,56,TA1
S0183,T01,LDIAM,51.5,mm,112,TA2
S0183,T02,LDIAM,14.9,mm,112,TA2
S0183,T03,LDIAM,59.4,mm,112,TA2
S0183,T04,LDIAM,58.6,mm,112,TA2
S0183,T05,LDIAM,17.3,mm,112,TA2
S0183,,SUMDIAM,201.8,mm,112,TA2
S0183,T01,LDIAM,51.5,mm,168,TA3
S0183,T02,LDIAM,14.9,mm,168,TA3
S0183,T03,LDIAM,59.4,mm,168,TA3
S0183,T04,LDIAM,58.6,mm,168,TA3
S0183,T05,LDIAM,17.3,mm,168,TA3
S0183,,SUMDIAM,201.8,mm,168,TA3
S0183,T01,LDIAM,51.5,mm,224,TA4
S0183,T02,LDIAM,14.9,mm,224,TA4
S0183,T03,LDIAM,59.4,mm,224,TA4
S0183,T04,LDIAM,58.6,mm,224,TA4
S0183,T05,LDIAM,17.3,mm,224,TA4
S0183,,SUMDIAM,201.8,mm,224,TA4
S0183,T01,LDIAM,51.5,mm,280,TA5
S0183,T02,LDIAM,14.9,mm,280,TA5
S0183,T03,LDIAM,59.4,mm,280,TA5
S0183,T04,LDIAM,58.6,mm,280,TA5
S0183,T05,LDIAM,17.3,mm,280,TA5
S0183,,SUMDIAM,201.8,mm,280,TA5
S0183,T01,LDIAM,51.5,mm,336,TA6
S0183,T02,LDIAM,14.9,mm,336,TA6
S0183,T03,LDIAM,59.4,mm,336,TA6
S0183,T04,LDIAM,58.6,mm,336,TA6
S0183,T05,LDIAM,17.3,mm,336,TA6
S0183,,SUMDIAM,201.8,mm,336,TA6
S0183,T01,LDIAM,51.5,mm,392,TA7
S0183,T02,LDIAM,14.9,mm,392,TA7
S0183,T03,LDIAM,59.4,mm,392,TA7
S0183,T04,LDIAM,58.6,mm,392,TA7
S0183,T05,LDIAM,17.3,mm,392,TA7
S0183,,SUMDIAM,201.8,mm,392,TA7
S0183,T01,LDIAM,51.5,mm,448,TA8
S0183,T02,LDIAM,14.9,mm,448,TA8
S0183,T03,LDIAM,59.4,mm,448,TA8
S0183,T04,LDIAM,58.6,mm,448,TA8
S0183,T05,LDIAM,17.3,mm,448,TA8
S0183,,SUMDIAM,201.8,mm,448,TA8
S0183,T01,LDIAM,51.5,mm,504,TA9
S0183,T02,LDIAM,14.9,mm,504,TA9
S0183,T03,LDIAM,59.4,mm,504,TA9
S0183,T04,LDIAM,58.6,mm,504,TA9
S0183,T05,LDIAM,17.3,mm,504,TA9
S0183,,SUMDIAM,201.8,mm,504,TA9
S0183,T01,LDIAM,51.5,mm,560,TA10
S0183,T02,LDIAM,14.9,mm,560,TA10
S0183,T03,LDIAM,59.4,mm,560,TA10
S0183,T04,LDIAM,58.6,mm,560,TA10
S0183,T05,LDIAM,17.3,mm,560,TA10
S0183,,SUMDIAM,201.8,mm,560,TA10
S0183,T01,LDIAM,51.5,mm,616,TA11
S0183,T02,LDIAM,14.9,mm,616,TA11
S0183,T03,LDIAM,59.4,mm,616,TA11
S0183,T04,LDIAM,58.6,mm,616,TA11
S0183,T05,LDIAM,17.3,mm,616,TA11
S0183,,SUMDIAM,201.8,mm,616,TA11
S0183,T01,LDIAM,51.5,mm,672,TA12
S0183,T02,LDIAM,14.9,mm,672,TA12
S0183,T03,LDIAM,59.4,mm,672,TA12
S0183,T04,LDIAM,58.6,mm,672,TA12
S0183,T05,LDIAM,17.3,mm,672,TA12
S0183,,SUMDIAM,201.8,mm,672,TA12
S0183,T01,LDIAM,51.5,mm,728,TA13
S0183,T02,LDIAM,14.9,mm,728,TA13
S0183,T03,LDIAM,59.4,mm,728,TA13
S0183,T04,LDIAM,58.6,mm,728,TA13
S0183,T05,LDIAM,17.3,mm,728,TA13
S0183,,SUMDIAM,201.8,mm,728,TA13
S0183,T01,LDIAM,51.5,mm,784,TA14
S0183,T02,LDIAM,14.9,mm,784,TA14
S0183,T03,LDIAM,59.4,mm,784,TA14
S0183,T04,LDIAM,58.6,mm,784,TA14
S0183,T05,LDIAM,17.3,mm,784,TA14
S0183,,SUMDIAM,201.8,mm,784,TA14
S0183,T01,LDIAM,51.5,mm,840,TA15
S0183,T02,LDIAM,14.9,mm,840,TA15
S0183,T03,LDIAM,59.4,mm,840,TA15
S0183,T04,LDIAM,58.6,mm,840,TA15
S0183,T05,LDIAM,17.3,mm,840,TA15
S0183,,SUMDIAM,201.8,mm,840,TA15
S0183,T01,LDIAM,51.5,mm,896,TA16
S0183,T02,LDIAM,14.9,mm,896,TA16
S0183,T03,LDIAM,59.4,mm,896,TA16
S0183,T04,LDIAM,58.6,mm,896,TA16
S0183,T05,LDIAM,17.3,mm,896,TA16
S0183,,SUMDIAM,201.8,mm,896,TA16
S0183,T01,LDIAM,51.5,mm,952,TA17
S0183,T02,LDIAM,14.9,mm,952,TA17
S0183,T03,LDIAM,59.4,mm,952,TA17
S0183,T04,LDIAM,58.6,mm,952,TA17
S0183,T05,LDIAM,17.3,mm,952,TA17
S0183,,SUMDIAM,201.8,mm,952,TA17
S0183,T01,LDIAM,51.5,mm,1008,TA18
S0183,T02,LDIAM,14.9,mm,1008,TA18
S0183,T03,LDIAM,59.4,mm,1008,TA18
S0183,T04,LDIAM,58.6,mm,1008,TA18
S0183,T05,LDIAM,17.3,mm,1008,TA18
S0183,,SUMDIAM,201.8,mm,1008,TA18
S0183,T01,LDIAM,51.5,mm,1064,TA19
S0183,T02,LDIAM,14.9,mm,1064,TA19
S0183,T03,LDIAM,59.4,mm,1064,TA19
S0183,T04,LDIAM,58.6,mm,1064,TA19
S0183,T05,LDIAM,17.3,mm,1064,TA19
S0183,,SUMDIAM,201.8,mm,1064,TA19
S0183,T01,LDIAM,51.5,mm,1120,TA20
S0183,T02,LDIAM,14.9,mm,1120,TA20
S0183,T03,LDIAM,59.4,mm,1120,TA20
S0183,T04,LDIAM,58.6,mm,1120,TA20
S0183,T05,LDIAM,17.3,mm,1120,TA20
S0183,,SUMDIAM,201.8,mm,1120,TA20
S0183,T01,LDIAM,51.5,mm,1176,TA21
S0183,T02,LDIAM,14.9,mm,1176,TA21
S0183,T03,LDIAM,59.4,mm,1176,TA21
S0183,T04,LDIAM,58.6,mm,1176,TA21
S0183,T05,LDIAM,17.3,mm,1176,TA21
S0183,,SUMDIAM,201.8,mm,1176,TA21
S0186,T01,LDIAM,55.8,mm,0,BASELINE
S0186,T02,LDIAM,53.9,mm,0,BASELINE
S0186,,SUMDIAM,109.7,mm,0,BASELINE
S0186,T01,LDIAM,66.6,mm,56,TA1
S0186,T02,LDIAM,64.4,mm,56,TA1
S0186,,SUMDIAM,131.0,mm,56,TA1
S0186,T01,LDIAM,77.4,mm,112,TA2
S0186,T02,LDIAM,74.8,mm,112,TA2
S0186,,SUMDIAM,152.3,mm,112,TA2
S0186,T01,LDIAM,77.4,mm,168,TA3
S0186,T02,LDIAM,74.8,mm,168,TA3
S0186,,SUMDIAM,152.3,mm,168,TA3
S0186,T01,LDIAM,77.4,mm,224,TA4
S0186,T02,LDIAM,74.8,mm,224,TA4
S0186,,SUMDIAM,152.3,mm,224,TA4
S0186,T01,LDIAM,77.4,mm,280,TA5
S0186,T02,LDIAM,74.8,mm,280,TA5
S0186,,SUMDIAM,152.3,mm,280,TA5
S0186,T01,LDIAM,80.9,mm,336,TA6
S0186,T02,LDIAM,78.2,mm,336,TA6
S0186,,SUMDIAM,159.1,mm,336,TA6
S0187,T01,LDIAM,45.9,mm,0,BASELINE
S0187,,SUMDIAM,45.9,mm,0,BASELINE
S0187,T01,LDIAM,35.7,mm,56,TA1
S0187,,SUMDIAM,35.7,mm,56,TA1
S0187,T01,LDIAM,25.5,mm,112,TA2
S0187,,SUMDIAM,25.5,mm,112,TA2
S0187,T01,LDIAM,25.5,mm,168,TA3
S0187,,SUMDIAM,25.5,mm,168,TA3
S0187,T01,LDIAM,25.5,mm,224,TA4
S0187,,SUMDIAM,25.5,mm,224,TA4
S0187,T01,LDIAM,25.5,mm,280,TA5
S0187,,SUMDIAM,25.5,mm,280,TA5
S0187,T01,LDIAM,25.5,mm,336,TA6
S0187,,SUMDIAM,25.5,mm,336,TA6
S0187,T01,LDIAM,25.5,mm,392,TA7
S0187,,SUMDIAM,25.5,mm,392,TA7
S0187,T01,LDIAM,25.5,mm,448,TA8
S0187,,SUMDIAM,25.5,mm,448,TA8
S0187,T01,LDIAM,25.5,mm,504,TA9
S0187,,SUMDIAM,25.5,mm,504,TA9
S0187,T01,LDIAM,25.5,mm,560,TA10
S0187,,SUMDIAM,25.5,mm,560,TA10
S0187,T01,LDIAM,25.5,mm,616,TA11
S0187,,SUMDIAM,25.5,mm,616,TA11
S0187,T01,LDIAM,25.5,mm,672,TA12
S0187,,SUMDIAM,25.5,mm,672,TA12
S0187,T01,LDIAM,25.5,mm,728,TA13
S0187,,SUMDIAM,25.5,mm,728,TA13
S0187,T01,LDIAM,25.5,mm,784,TA14
S0187,,SUMDIAM,25.5,mm,784,TA14
S0187,T01,LDIAM,25.5,mm,840,TA15
S0187,,SUMDIAM,25.5,mm,840,TA15
S0187,T01,LDIAM,25.5,mm,896,TA16
S0187,,SUMDIAM,25.5,mm,896,TA16
S0187,T01,LDIAM,25.5,mm,952,TA17
S0187,,SUMDIAM,25.5,mm,952,TA17
S0187,T01,LDIAM,25.5,mm,1008,TA18
S0187,,SUMDIAM,25.5,mm,1008,TA18
S0187,T01,LDIAM,25.5,mm,1064,TA19
S0187,,SUMDIAM,25.5,mm,1064,TA19
S0187,T01,LDIAM,25.5,mm,1120,TA20
S0187,,SUMDIAM,25.5,mm,1120,TA20
S0187,T01,LDIAM,25.5,mm,1176,TA21
S0187,,SUMDIAM,25.5,mm,1176,TA21
S0190,T01,LDIAM,24.5,mm,0,BASELINE
S0190,T02,LDIAM,31.8,mm,0,BASELINE
S0190,T03,LDIAM,13.4,mm,0,BASELINE
S0190,T04,LDIAM,31.8,mm,0,BASELINE
S0190,T05,LDIAM,42.9,mm,0,BASELINE
S0190,,SUMDIAM,144.4,mm,0,BASELINE
S0190,T01,LDIAM,24.8,mm,56,TA1
S0190,T02,LDIAM,32.2,mm,56,TA1
S0190,T03,LDIAM,13.6,mm,56,TA1
S0190,T04,LDIAM,32.2,mm,56,TA1
S0190,T05,LDIAM,43.4,mm,56,TA1
S0190,,SUMDIAM,146.1,mm,56,TA1
S0190,T01,LDIAM,25.1,mm,112,TA2
S0190,T02,LDIAM,32.6,mm,112,TA2
S0190,T03,LDIAM,13.7,mm,112,TA2
S0190,T04,LDIAM,32.6,mm,112,TA2
S0190,T05,LDIAM,43.9,mm,112,TA2
S0190,,SUMDIAM,147.9,mm,112,TA2
S0190,T01,LDIAM,25.1,mm,168,TA3
S0190,T02,LDIAM,32.6,mm,168,TA3
S0190,T03,LDIAM,13.7,mm,168,TA3
S0190,T04,LDIAM,32.6,mm,168,TA3
S0190,T05,LDIAM,43.9,mm,168,TA3
S0190,,SUMDIAM,147.9,mm,168,TA3
S0190,T01,LDIAM,25.1,mm,224,TA4
S0190,T02,LDIAM,32.6,mm,224,TA4
S0190,T03,LDIAM,13.7,mm,224,TA4
S0190,T04,LDIAM,32.6,mm,224,TA4
S0190,T05,LDIAM,43.9,mm,224,TA4
S0190,,SUMDIAM,147.9,mm,224,TA4
S0190,T01,LDIAM,25.1,mm,280,TA5
S0190,T02,LDIAM,32.6,mm,280,TA5
S0190,T03,LDIAM,13.7,mm,280,TA5
S0190,T04,LDIAM,32.6,mm,280,TA5
S0190,T05,LDIAM,43.9,mm,280,TA5
S0190,,SUMDIAM,147.9,mm,280,TA5
S0190,T01,LDIAM,25.1,mm,336,TA6
S0190,T02,LDIAM,32.6,mm,336,TA6
S0190,T03,LDIAM,13.7,mm,336,TA6
S0190,T04,LDIAM,32.6,mm,336,TA6
S0190,T05,LDIAM,43.9,mm,336,TA6
S0190,,SUMDIAM,147.9,mm,336,TA6
S0190,T01,LDIAM,25.1,mm,392,TA7
S0190,T02,LDIAM,32.6,mm,392,TA7
S0190,T03,LDIAM,13.7,mm,392,TA7
S0190,T04,LDIAM,32.6,mm,392,TA7
S0190,T05,LDIAM,43.9,mm,392,TA7
S0190,,SUMDIAM,147.9,mm,392,TA7
S0190,T01,LDIAM,25.1,mm,448,TA8
S0190,T02,LDIAM,32.6,mm,448,TA8
S0190,T03,LDIAM,13.7,mm,448,TA8
S0190,T04,LDIAM,32.6,mm,448,TA8
S0190,T05,LDIAM,43.9,mm,448,TA8
S0190,,SUMDIAM,147.9,mm,448,TA8
S0190,T01,LDIAM,25.1,mm,504,TA9
S0190,T02,LDIAM,32.6,mm,504,TA9
S0190,T03,LDIAM,13.7,mm,504,TA9
S0190,T04,LDIAM,32.6,mm,504,TA9
S0190,T05,LDIAM,43.9,mm,504,TA9
S0190,,SUMDIAM,147.9,mm,504,TA9
S0190,T01,LDIAM,25.1,mm,560,TA10
S0190,T02,LDIAM,32.6,mm,560,TA10
S0190,T03,LDIAM,13.7,mm,560,TA10
S0190,T04,LDIAM,32.6,mm,560,TA10
S0190,T05,LDIAM,43.9,mm,560,TA10
S0190,,SUMDIAM,147.9,mm,560,TA10
S0190,T01,LDIAM,25.1,mm,616,TA11
S0190,T02,LDIAM,32.6,mm,616,TA11
S0190,T03,LDIAM,13.7,mm,616,TA11
S0190,T04,LDIAM,32.6,mm,616,TA11
S0190,T05,LDIAM,43.9,mm,616,TA11
S0190,,SUMDIAM,147.9,mm,616,TA11
S0190,T01,LDIAM,25.1,mm,672,TA12
S0190,T02,LDIAM,32.6,mm,672,TA12
S0190,T03,LDIAM,13.7,mm,672,TA12
S0190,T04,LDIAM,32.6,mm,672,TA12
S0190,T05,LDIAM,43.9,mm,672,TA12
S0190,,SUMDIAM,147.9,mm,672,TA12
S0190,T01,LDIAM,25.1,mm,728,TA13
S0190,T02,LDIAM,32.6,mm,728,TA13
S0190,T03,LDIAM,13.7,mm,728,TA13
S0190,T04,LDIAM,32.6,mm,728,TA13
S0190,T05,LDIAM,43.9,mm,728,TA13
S0190,,SUMDIAM,147.9,mm,728,TA13
S0190,T01,LDIAM,25.1,mm,784,TA14
S0190,T02,LDIAM,32.6,mm,784,TA14
S0190,T03,LDIAM,13.7,mm,784,TA14
S0190,T04,LDIAM,32.6,mm,784,TA14
S0190,T05,LDIAM,43.9,mm,784,TA14
S0190,,SUMDIAM,147.9,mm,784,TA14
S0190,T01,LDIAM,25.1,mm,840,TA15
S0190,T02,LDIAM,32.6,mm,840,TA15
S0190,T03,LDIAM,13.7,mm,840,TA15
S0190,T04,LDIAM,32.6,mm,840,TA15
S0190,T05,LDIAM,43.9,mm,840,TA15
S0190,,SUMDIAM,147.9,mm,840,TA15
S0190,T01,LDIAM,25.1,mm,896,TA16
S0190,T02,LDIAM,32.6,mm,896,TA16
S0190,T03,LDIAM,13.7,mm,896,TA16
S0190,T04,LDIAM,32.6,mm,896,TA16
S0190,T05,LDIAM,43.9,mm,896,TA16
S0190,,SUMDIAM,147.9,mm,896,TA16
S0190,T01,LDIAM,25.1,mm,952,TA17
S0190,T02,LDIAM,32.6,mm,952,TA17
S0190,T03,LDIAM,13.7,mm,952,TA17
S0190,T04,LDIAM,32.6,mm,952,TA17
S0190,T05,LDIAM,43.9,mm,952,TA17
S0190,,SUMDIAM,147.9,mm,952,TA17
S0190,T01,LDIAM,25.1,mm,1008,TA18
S0190,T02,LDIAM,32.6,mm,1008,TA18
S0190,T03,LDIAM,13.7,mm,1008,TA18
S0190,T04,LDIAM,32.6,mm,1008,TA18
S0190,T05,LDIAM,43.9,mm,1008,TA18
S0190,,SUMDIAM,147.9,mm,1008,TA18
S0190,T01,LDIAM,25.1,mm,1064,TA19
S0190,T02,LDIAM,32.6,mm,1064,TA19
S0190,T03,LDIAM,13.7,mm,1064,TA19
S0190,T04,LDIAM,32.6,mm,1064,TA19
S0190,T05,LDIAM,43.9,mm,1064,TA19
S0190,,SUMDIAM,147.9,mm,1064,TA19
S0190,T01,LDIAM,25.1,mm,1120,TA20
S0190,T02,LDIAM,32.6,mm,1120,TA20
S0190,T03,LDIAM,13.7,mm,1120,TA20
S0190,T04,LDIAM,32.6,mm,1120,TA20
S0190,T05,LDIAM,43.9,mm,1120,TA20
S0190,,SUMDIAM,147.9,mm,1120,TA20
S0191,T01,LDIAM,31.6,mm,0,BASELINE
S0191,T02,LDIAM,25.5,mm,0,BASELINE
S0191,T03,LDIAM,51.3,mm,0,BASELINE
S0191,,SUMDIAM,108.4,mm,0,BASELINE
S0191,T01,LDIAM,15.8,mm,56,TA1
S0191,T02,LDIAM,12.8,mm,56,TA1
S0191,T03,LDIAM,25.6,mm,56,TA1
S0191,,SUMDIAM,54.2,mm,56,TA1
S0191,T01,LDIAM,0.0,mm,112,TA2
S0191,T02,LDIAM,0.0,mm,112,TA2
S0191,T03,LDIAM,0.0,mm,112,TA2
S0191,,SUMDIAM,0.0,mm,112,TA2
S0191,T01,LDIAM,0.0,mm,168,TA3
S0191,T02,LDIAM,0.0,mm,168,TA3
S0191,T03,LDIAM,0.0,mm,168,TA3
S0191,,SUMDIAM,0.0,mm,168,TA3
S0191,T01,LDIAM,0.0,mm,224,TA4
S0191,T02,LDIAM,0.0,mm,224,TA4
S0191,T03,LDIAM,0.0,mm,224,TA4
S0191,,SUMDIAM,0.0,mm,224,TA4
S0191,T01,LDIAM,0.0,mm,280,TA5
S0191,T02,LDIAM,0.0,mm,280,TA5
S0191,T03,LDIAM,0.0,mm,280,TA5
S0191,,SUMDIAM,0.0,mm,280,TA5
S0191,T01,LDIAM,0.0,mm,336,TA6
S0191,T02,LDIAM,0.0,mm,336,TA6
S0191,T03,LDIAM,0.0,mm,336,TA6
S0191,,SUMDIAM,0.0,mm,336,TA6
S0191,T01,LDIAM,0.0,mm,392,TA7
S0191,T02,LDIAM,0.0,mm,392,TA7
S0191,T03,LDIAM,0.0,mm,392,TA7
S0191,,SUMDIAM,0.0,mm,392,TA7
S0191,T01,LDIAM,0.0,mm,448,TA8
S0191,T02,LDIAM,0.0,mm,448,TA8
S0191,T03,LDIAM,0.0,mm,448,TA8
S0191,,SUMDIAM,0.0,mm,448,TA8
S0191,T01,LDIAM,0.0,mm,504,TA9
S0191,T02,LDIAM,0.0,mm,504,TA9
S0191,T03,LDIAM,0.0,mm,504,TA9
S0191,,SUMDIAM,0.0,mm,504,TA9
S0191,T01,LDIAM,0.0,mm,560,TA10
S0191,T02,LDIAM,0.0,mm,560,TA10
S0191,T03,LDIAM,0.0,mm,560,TA10
S0191,,SUMDIAM,0.0,mm,560,TA10
S0191,T01,LDIAM,0.0,mm,616,TA11
S0191,T02,LDIAM,0.0,mm,616,TA11
S0191,T03,LDIAM,0.0,mm,616,TA11
S0191,,SUMDIAM,0.0,mm,616,TA11
S0191,T01,LDIAM,0.0,mm,672,TA12
S0191,T02,LDIAM,0.0,mm,672,TA12
S0191,T03,LDIAM,0.0,mm,672,TA12
S0191,,SUMDIAM,0.0,mm,672,TA12
S0191,T01,LDIAM,0.0,mm,728,TA13
S0191,T02,LDIAM,0.0,mm,728,TA13
S0191,T03,LDIAM,0.0,mm,728,TA13
S0191,,SUMDIAM,0.0,mm,728,TA13
S0191,T01,LDIAM,0.0,mm,784,TA14
S0191,T02,LDIAM,0.0,mm,784,TA14
S0191,T03,LDIAM,0.0,mm,784,TA14
S0191,,SUMDIAM,0.0,mm,784,TA14
S0191,T01,LDIAM,0.0,mm,840,TA15
S0191,T02,LDIAM,0.0,mm,840,TA15
S0191,T03,LDIAM,0.0,mm,840,TA15
S0191,,SUMDIAM,0.0,mm,840,TA15
S0191,T01,LDIAM,0.0,mm,896,TA16
S0191,T02,LDIAM,0.0,mm,896,TA16
S0191,T03,LDIAM,0.0,mm,896,TA16
S0191,,SUMDIAM,0.0,mm,896,TA16
S0191,T01,LDIAM,0.0,mm,952,TA17
S0191,T02,LDIAM,0.0,mm,952,TA17
S0191,T03,LDIAM,0.0,mm,952,TA17
S0191,,SUMDIAM,0.0,mm,952,TA17
S0191,T01,LDIAM,0.0,mm,1008,TA18
S0191,T02,LDIAM,0.0,mm,1008,TA18
S0191,T03,LDIAM,0.0,mm,1008,TA18
S0191,,SUMDIAM,0.0,mm,1008,TA18
S0191,T01,LDIAM,0.0,mm,1064,TA19
S0191,T02,LDIAM,0.0,mm,1064,TA19
S0191,T03,LDIAM,0.0,mm,1064,TA19
S0191,,SUMDIAM,0.0,mm,1064,TA19
S0191,T01,LDIAM,0.0,mm,1120,TA20
S0191,T02,LDIAM,0.0,mm,1120,TA20
S0191,T03,LDIAM,0.0,mm,1120,TA20
S0191,,SUMDIAM,0.0,mm,1120,TA20
S0192,T01,LDIAM,27.0,mm,0,BASELINE
S0192,T02,LDIAM,39.2,mm,0,BASELINE
S0192,T03,LDIAM,22.5,mm,0,BASELINE
S0192,T04,LDIAM,43.9,mm,0,BASELINE
S0192,,SUMDIAM,132.6,mm,0,BASELINE
S0192,T01,LDIAM,27.1,mm,56,TA1
S0192,T02,LDIAM,39.4,mm,56,TA1
S0192,T03,LDIAM,22.6,mm,56,TA1
S0192,T04,LDIAM,44.1,mm,56,TA1
S0192,,SUMDIAM,133.3,mm,56,TA1
S0192,T01,LDIAM,27.3,mm,112,TA2
S0192,T02,LDIAM,39.6,mm,112,TA2
S0192,T03,LDIAM,22.7,mm,112,TA2
S0192,T04,LDIAM,44.3,mm,112,TA2
S0192,,SUMDIAM,133.9,mm,112,TA2
S0192,T01,LDIAM,27.3,mm,168,TA3
S0192,T02,LDIAM,39.6,mm,168,TA3
S0192,T03,LDIAM,22.7,mm,168,TA3
S0192,T04,LDIAM,44.3,mm,168,TA3
S0192,,SUMDIAM,133.9,mm,168,TA3
S0192,T01,LDIAM,27.3,mm,224,TA4
S0192,T02,LDIAM,39.6,mm,224,TA4
S0192,T03,LDIAM,22.7,mm,224,TA4
S0192,T04,LDIAM,44.3,mm,224,TA4
S0192,,SUMDIAM,133.9,mm,224,TA4
S0192,T01,LDIAM,27.3,mm,280,TA5
S0192,T02,LDIAM,39.6,mm,280,TA5
S0192,T03,LDIAM,22.7,mm,280,TA5
S0192,T04,LDIAM,44.3,mm,280,TA5
S0192,,SUMDIAM,133.9,mm,280,TA5
S0192,T01,LDIAM,27.3,mm,336,TA6
S0192,T02,LDIAM,39.6,mm,336,TA6
S0192,T03,LDIAM,22.7,mm,336,TA6
S0192,T04,LDIAM,44.3,mm,336,TA6
S0192,,SUMDIAM,133.9,mm,336,TA6
S0192,T01,LDIAM,27.3,mm,392,TA7
S0192,T02,LDIAM,39.6,mm,392,TA7
S0192,T03,LDIAM,22.7,mm,392,TA7
S0192,T04,LDIAM,44.3,mm,392,TA7
S0192,,SUMDIAM,133.9,mm,392,TA7
S0192,T01,LDIAM,27.3,mm,448,TA8
S0192,T02,LDIAM,39.6,mm,448,TA8
S0192,T03,LDIAM,22.7,mm,448,TA8
S0192,T04,LDIAM,44.3,mm,448,TA8
S0192,,SUMDIAM,133.9,mm,448,TA8
S0192,T01,LDIAM,27.3,mm,504,TA9
S0192,T02,LDIAM,39.6,mm,504,TA9
S0192,T03,LDIAM,22.7,mm,504,TA9
S0192,T04,LDIAM,44.3,mm,504,TA9
S0192,,SUMDIAM,133.9,mm,504,TA9
S0192,T01,LDIAM,27.3,mm,560,TA10
S0192,T02,LDIAM,39.6,mm,560,TA10
S0192,T03,LDIAM,22.7,mm,560,TA10
S0192,T04,LDIAM,44.3,mm,560,TA10
S0192,,SUMDIAM,133.9,mm,560,TA10
S0192,T01,LDIAM,27.3,mm,616,TA11
S0192,T02,LDIAM,39.6,mm,616,TA11
S0192,T03,LDIAM,22.7,mm,616,TA11
S0192,T04,LDIAM,44.3,mm,616,TA11
S0192,,SUMDIAM,133.9,mm,616,TA11
S0192,T01,LDIAM,27.3,mm,672,TA12
S0192,T02,LDIAM,39.6,mm,672,TA12
S0192,T03,LDIAM,22.7,mm,672,TA12
S0192,T04,LDIAM,44.3,mm,672,TA12
S0192,,SUMDIAM,133.9,mm,672,TA12
S0192,T01,LDIAM,27.3,mm,728,TA13
S0192,T02,LDIAM,39.6,mm,728,TA13
S0192,T03,LDIAM,22.7,mm,728,TA13
S0192,T04,LDIAM,44.3,mm,728,TA13
S0192,,SUMDIAM,133.9,mm,728,TA13
S0192,T01,LDIAM,27.3,mm,784,TA14
S0192,T02,LDIAM,39.6,mm,784,TA14
S0192,T03,LDIAM,22.7,mm,784,TA14
S0192,T04,LDIAM,44.3,mm,784,TA14
S0192,,SUMDIAM,133.9,mm,784,TA14
S0192,T01,LDIAM,27.3,mm,840,TA15
S0192,T02,LDIAM,39.6,mm,840,TA15
S0192,T03,LDIAM,22.7,mm,840,TA15
S0192,T04,LDIAM,44.3,mm,840,TA15
S0192,,SUMDIAM,133.9,mm,840,TA15
S0192,T01,LDIAM,27.3,mm,896,TA16
S0192,T02,LDIAM,39.6,mm,896,TA16
S0192,T03,LDIAM,22.7,mm,896,TA16
S0192,T04,LDIAM,44.3,mm,896,TA16
S0192,,SUMDIAM,133.9,mm,896,TA16
S0192,T01,LDIAM,27.3,mm,952,TA17
S0192,T02,LDIAM,39.6,mm,952,TA17
S0192,T03,LDIAM,22.7,mm,952,TA17
S0192,T04,LDIAM,44.3,mm,952,TA17
S0192,,SUMDIAM,133.9,mm,952,TA17
S0192,T01,LDIAM,27.3,mm,1008,TA18
S0192,T02,LDIAM,39.6,mm,1008,TA18
S0192,T03,LDIAM,22.7,mm,1008,TA18
S0192,T04,LDIAM,44.3,mm,1008,TA18
S0192,,SUMDIAM,133.9,mm,1008,TA18
S0192,T01,LDIAM,27.3,mm,1064,TA19
S0192,T02,LDIAM,39.6,mm,1064,TA19
S0192,T03,LDIAM,22.7,mm,1064,TA19
S0192,T04,LDIAM,44.3,mm,1064,TA19
S0192,,SUMDIAM,133.9,mm,1064,TA19
S0192,T01,LDIAM,27.3,mm,1120,TA20
S0192,T02,LDIAM,39.6,mm,1120,TA20
S0192,T03,LDIAM,22.7,mm,1120,TA20
S0192,T04,LDIAM,44.3,mm,1120,TA20
S0192,,SUMDIAM,133.9,mm,1120,TA20
S0194,T01,LDIAM,53.8,mm,0,BASELINE
S0194,T02,LDIAM,10.4,mm,0,BASELINE
