STUDYID,USUBJID,ARMCD,AGE,SEX,RACE,ETHNIC,RFSTDTC_DAY,ENROLLMENT_DAY,TRTSDY,TRTEDY,EOTREAS,N_CYCLES,N_REDUCTIONS,N_HOLDS,RDI,ANY_SAE,ANY_GR3,DTHFL,DTHDY
NCT01391962,S0001,ARM2,21.1,male,white,not_hispanic_or_latino,1,44.7,1,505,disease progression,19,0,2,0.996,N,N,N,
NCT01391962,S0002,ARM2,26.95,male,white,not_hispanic_or_latino,1,68.7,1,393,disease progression,15,0,1,0.997,N,N,N,
NCT01391962,S0003,ARM2,18.31,male,unknown_or_not_reported,hispanic_or_latino,1,109.5,1,169,disease progression,7,0,1,0.994,N,N,N,
NCT01391962,S0004,ARM2,60.39,female,white,not_hispanic_or_latino,1,126.1,1,449,disease progression,17,0,1,0.998,N,N,N,
NCT01391962,S0005,ARM2,35.65,male,white,not_hispanic_or_latino,1,129.9,1,225,disease progression,9,0,1,0.996,Y,Y,N,
NCT01391962,S0006,ARM2,43.8,male,white,not_hispanic_or_latino,1,156.3,1,46,adverse event (all agents discontinued),2,0,0,0.978,Y,Y,N,
NCT01391962,S0007,ARM2,51.17,male,white,not_hispanic_or_latino,1,191.5,1,561,disease progression,21,0,1,0.998,Y,Y,N,
NCT01391962,S0008,ARM2,34.95,female,black_or_african_american,not_hispanic_or_latino,1,196.5,1,90,death,4,0,2,0.978,N,N,Y,90
NCT01391962,S0009,ARM2,35.6,male,white,not_hispanic_or_latino,1,248.2,1,449,disease progression,17,0,1,0.998,N,N,N,
NCT01391962,S0010,ARM2,27.52,male,white,hispanic_or_latino,1,257.1,1,561,disease progression,21,0,0,1.0,N,N,N,
NCT01391962,S0011,ARM2,22.45,male,black_or_african_american,not_hispanic_or_latino,1,281.4,1,225,disease progression,9,0,1,0.996,Y,Y,N,
NCT01391962,S0012,ARM2,33.71,male,white,not_hispanic_or_latino,1,282.3,1,281,disease progression,11,0,0,1.0,Y,Y,N,
NCT01391962,S0013,ARM2,21.87,female,white,not_hispanic_or_latino,1,295.2,1,730,end of simulated follow-up,27,0,1,0.999,N,N,N,
NCT01391962,S0014,ARM2,18.39,female,white,not_hispanic_or_latino,1,297.9,1,673,disease progression,25,0,0,1.0,N,N,N,
NCT01391962,S0015,ARM2,20.7,male,white,not_hispanic_or_latino,1,308.1,1,730,end of simulated follow-up,27,0,1,0.999,Y,Y,N,
NCT01391962,S0016,ARM2,40.22,male,white,not_hispanic_or_latino,1,335.0,1,113,disease progression,5,0,0,1.0,Y,Y,N,
NCT01391962,S0017,ARM2,24.38,female,more_than_one_race,not_hispanic_or_latino,1,351.3,1,673,disease progression,25,0,1,0.999,N,N,N,
NCT01391962,S0018,ARM2,30.59,male,white,not_hispanic_or_latino,1,356.0,1,660,adverse event (registry discontinuation rate),24,0,2,0.997,N,N,N,
NCT01391962,S0019,ARM2,27.19,male,black_or_african_american,not_hispanic_or_latino,1,397.5,1,169,disease progression,7,0,2,0.988,N,N,N,
NCT01391962,S0020,ARM2,23.55,male,white,not_hispanic_or_latino,1,403.9,1,104,death,4,0,2,0.981,N,N,Y,104
NCT01391962,S0021,ARM2,28.58,male,white,not_hispanic_or_latino,1,406.6,1,337,disease progression,13,0,1,0.997,N,N,N,
NCT01391962,S0022,ARM2,16.72,female,black_or_african_american,not_hispanic_or_latino,1,487.6,1,84,"withdrawal (subject, loss to follow-up or physician decision)",3,0,0,1.0,N,N,N,
NCT01391962,S0023,ARM2,16.11,male,white,not_hispanic_or_latino,1,501.4,1,730,end of simulated follow-up,27,0,2,0.997,N,N,N,
NCT01391962,S0024,ARM2,23.69,female,white,not_hispanic_or_latino,1,593.7,1,113,disease progression,5,0,1,0.991,Y,Y,N,
NCT01391962,S0025,ARM2,16.89,male,white,not_hispanic_or_latino,1,613.8,1,169,disease progression,7,0,1,0.994,N,N,N,
NCT01391962,S0026,ARM2,19.92,female,white,not_hispanic_or_latino,1,683.6,1,730,end of simulated follow-up,27,0,1,0.999,Y,Y,N,
NCT01391962,S0027,ARM2,23.55,male,white,not_hispanic_or_latino,1,742.3,1,729,disease progression,27,0,3,0.996,Y,Y,N,
NCT01391962,S0028,ARM2,27.23,male,white,not_hispanic_or_latino,1,821.1,1,281,disease progression,11,0,0,1.0,N,N,N,
NCT01391962,S0029,ARM2,29.68,female,white,not_hispanic_or_latino,1,891.0,1,434,adverse event (registry discontinuation rate),16,0,1,0.998,Y,Y,N,
NCT01391962,S0030,ARM2,23.51,male,white,not_hispanic_or_latino,1,902.7,1,449,disease progression,17,0,1,0.998,N,N,N,
NCT01391962,S0031,ARM2,36.07,female,white,not_hispanic_or_latino,1,940.0,1,252,"withdrawal (subject, loss to follow-up or physician decision)",9,0,1,0.996,N,N,N,
NCT01391962,S0032,ARM2,28.19,female,white,not_hispanic_or_latino,1,945.9,1,729,disease progression,27,0,1,0.999,N,N,N,
NCT01391962,S0033,ARM2,31.21,male,white,not_hispanic_or_latino,1,949.6,1,281,disease progression,11,0,2,0.993,Y,Y,N,
NCT01391962,S0034,ARM2,16.46,female,white,not_hispanic_or_latino,1,989.8,1,505,disease progression,19,0,2,0.996,N,N,N,
NCT01391962,S0035,ARM2,19.98,male,white,not_hispanic_or_latino,1,1036.6,1,225,disease progression,9,0,0,1.0,N,N,N,
NCT01391962,S0036,ARM2,40.92,male,white,not_hispanic_or_latino,1,1057.1,1,730,end of simulated follow-up,27,0,1,0.999,N,N,N,
NCT01391962,S0037,ARM2,31.98,male,asian,not_hispanic_or_latino,1,1098.4,1,169,disease progression,7,0,2,0.988,Y,Y,N,
NCT01391962,S0038,ARM2,27.08,female,white,not_hispanic_or_latino,1,1125.6,1,57,disease progression,3,0,1,0.982,Y,Y,N,
NCT01391962,S0039,ARM2,23.07,male,white,not_hispanic_or_latino,1,1190.8,1,730,end of simulated follow-up,27,0,2,0.997,Y,Y,N,
NCT01391962,S0040,ARM2,23.74,male,white,not_hispanic_or_latino,1,1256.2,1,169,disease progression,7,0,0,1.0,N,N,N,
NCT01391962,S0041,ARM2,26.17,male,white,not_hispanic_or_latino,1,1261.7,1,169,disease progression,7,0,1,0.994,N,N,N,
NCT01391962,S0042,ARM2,22.75,female,white,not_hispanic_or_latino,1,1305.9,1,169,disease progression,7,0,1,0.994,Y,Y,N,
NCT01391962,S0043,ARM2,33.5,female,white,hispanic_or_latino,1,1335.4,1,393,disease progression,15,0,2,0.992,Y,Y,N,
NCT01391962,S0044,ARM2,31.76,male,white,not_hispanic_or_latino,1,1343.8,1,730,end of simulated follow-up,27,0,1,0.999,N,N,N,
NCT01391962,S0045,ARM2,26.97,male,white,hispanic_or_latino,1,1348.9,1,57,disease progression,3,0,0,1.0,Y,Y,N,
NCT01391962,S0046,ARM2,23.26,female,white,not_hispanic_or_latino,1,1356.0,1,281,disease progression,11,0,2,0.993,N,N,N,
NCT01391962,S0047,ARM2,22.38,male,white,not_hispanic_or_latino,1,1362.9,1,57,disease progression,3,0,1,0.982,N,N,N,
NCT01391962,S0048,ARM2,33.35,female,white,not_hispanic_or_latino,1,1374.5,1,730,end of simulated follow-up,27,0,1,0.999,N,N,N,
NCT01391962,S0049,ARM2,16.82,female,white,not_hispanic_or_latino,1,1445.1,1,169,disease progression,7,0,1,0.994,Y,Y,N,
NCT01391962,S0050,ARM2,34.52,female,white,not_hispanic_or_latino,1,1445.9,1,393,disease progression,15,0,1,0.997,N,N,N,
NCT01391962,S0051,ARM2,26.81,female,white,not_hispanic_or_latino,1,1465.8,1,730,end of simulated follow-up,27,0,2,0.997,N,N,N,
NCT01391962,S0052,ARM2,36.16,male,white,not_hispanic_or_latino,1,1472.8,1,730,end of simulated follow-up,27,0,1,0.999,N,N,N,
NCT01391962,S0053,ARM2,26.37,male,black_or_african_american,not_hispanic_or_latino,1,1474.5,1,57,disease progression,3,0,0,1.0,Y,Y,N,
NCT01391962,S0054,ARM2,23.72,male,white,not_hispanic_or_latino,1,1588.5,1,108,death,4,0,2,0.981,N,N,Y,108
NCT01391962,S0055,ARM2,16.53,male,white,not_hispanic_or_latino,1,1600.1,1,225,disease progression,9,0,1,0.996,N,N,N,
NCT01391962,S0056,ARM2,20.19,female,white,not_hispanic_or_latino,1,1619.5,1,730,end of simulated follow-up,27,0,1,0.999,Y,Y,N,
NCT01391962,S0057,ARM2,33.84,male,white,not_hispanic_or_latino,1,1629.2,1,57,disease progression,3,0,1,0.982,N,N,N,
NCT01391962,S0058,ARM2,21.1,male,white,not_hispanic_or_latino,1,1635.6,1,730,end of simulated follow-up,27,0,1,0.999,Y,Y,N,
NCT01391962,S0059,ARM2,25.47,female,asian,not_hispanic_or_latino,1,1659.0,1,113,disease progression,5,0,1,0.991,Y,Y,N,
NCT01391962,S0060,ARM2,24.72,female,white,not_hispanic_or_latino,1,1659.8,1,41,adverse event (all agents discontinued),2,0,0,0.976,N,N,N,
NCT01391962,S0061,ARM2,42.21,female,white,not_hispanic_or_latino,1,1711.3,1,251,adverse event (registry discontinuation rate),9,0,1,0.996,N,N,N,
NCT01391962,S0062,ARM2,25.72,female,white,not_hispanic_or_latino,1,1776.0,1,225,disease progression,9,0,0,1.0,N,N,N,
NCT01391962,S0063,ARM2,51.55,male,white,not_hispanic_or_latino,1,1811.0,1,730,end of simulated follow-up,27,0,1,0.999,Y,Y,N,
NCT01391962,S0064,ARM2,26.13,male,white,hispanic_or_latino,1,1812.8,1,234,adverse event (all agents discontinued),9,0,0,0.996,N,N,N,
NCT01391962,S0065,ARM2,29.06,male,white,hispanic_or_latino,1,1841.5,1,505,disease progression,19,0,1,0.998,Y,Y,N,
NCT01391962,S0066,ARM2,21.45,male,white,not_hispanic_or_latino,1,1860.6,1,281,disease progression,11,0,2,0.993,N,N,N,
NCT01391962,S0067,ARM2,24.13,female,white,not_hispanic_or_latino,1,1889.6,1,113,disease progression,5,0,2,0.982,N,N,N,
NCT01391962,S0068,ARM2,38.73,female,white,not_hispanic_or_latino,1,1903.3,1,673,disease progression,25,0,0,1.0,N,N,N,
NCT01391962,S0069,ARM2,41.47,male,unknown_or_not_reported,not_hispanic_or_latino,1,1952.0,1,281,disease progression,11,0,1,0.996,N,N,N,
NCT01391962,S0070,ARM2,21.97,male,white,not_hispanic_or_latino,1,1966.8,1,57,disease progression,3,0,1,0.982,N,N,N,
