USUBJID,ARMCD,PARAMCD,PARAM,AVAL_DAYS,CNSR,EVNTDESC
S0001,ARM2,PFS,Progression-free survival (detected at assessment),505,0,progression detected at scheduled tumour assessment
S0001,ARM2,OS,Overall survival (death in the simulated horizon),530,1,censored at last simulated contact
S0002,ARM2,PFS,Progression-free survival (detected at assessment),393,0,progression detected at scheduled tumour assessment
S0002,ARM2,OS,Overall survival (death in the simulated horizon),400,1,censored at last simulated contact
S0003,ARM2,PFS,Progression-free survival (detected at assessment),169,0,progression detected at scheduled tumour assessment
S0003,ARM2,OS,Overall survival (death in the simulated horizon),184,1,censored at last simulated contact
S0004,ARM2,PFS,Progression-free survival (detected at assessment),449,0,progression detected at scheduled tumour assessment
S0004,ARM2,OS,Overall survival (death in the simulated horizon),449,1,censored at last simulated contact
S0005,ARM2,PFS,Progression-free survival (detected at assessment),225,0,progression detected at scheduled tumour assessment
S0005,ARM2,OS,Overall survival (death in the simulated horizon),246,1,censored at last simulated contact
S0006,ARM2,PFS,Progression-free survival (detected at assessment),46,1,censored at last tumour assessment
S0006,ARM2,OS,Overall survival (death in the simulated horizon),64,1,censored at last simulated contact
S0007,ARM2,PFS,Progression-free survival (detected at assessment),561,0,progression detected at scheduled tumour assessment
S0007,ARM2,OS,Overall survival (death in the simulated horizon),561,1,censored at last simulated contact
S0008,ARM2,PFS,Progression-free survival (detected at assessment),57,1,censored at last tumour assessment
S0008,ARM2,OS,Overall survival (death in the simulated horizon),90,0,death
S0009,ARM2,PFS,Progression-free survival (detected at assessment),449,0,progression detected at scheduled tumour assessment
S0009,ARM2,OS,Overall survival (death in the simulated horizon),449,1,censored at last simulated contact
S0010,ARM2,PFS,Progression-free survival (detected at assessment),561,0,progression detected at scheduled tumour assessment
S0010,ARM2,OS,Overall survival (death in the simulated horizon),561,1,censored at last simulated contact
S0011,ARM2,PFS,Progression-free survival (detected at assessment),225,0,progression detected at scheduled tumour assessment
S0011,ARM2,OS,Overall survival (death in the simulated horizon),253,1,censored at last simulated contact
S0012,ARM2,PFS,Progression-free survival (detected at assessment),281,0,progression detected at scheduled tumour assessment
S0012,ARM2,OS,Overall survival (death in the simulated horizon),303,1,censored at last simulated contact
S0013,ARM2,PFS,Progression-free survival (detected at assessment),729,1,censored at last tumour assessment
S0013,ARM2,OS,Overall survival (death in the simulated horizon),730,1,censored at last simulated contact
S0014,ARM2,PFS,Progression-free survival (detected at assessment),673,0,progression detected at scheduled tumour assessment
S0014,ARM2,OS,Overall survival (death in the simulated horizon),673,1,censored at last simulated contact
S0015,ARM2,PFS,Progression-free survival (detected at assessment),729,1,censored at last tumour assessment
S0015,ARM2,OS,Overall survival (death in the simulated horizon),744,1,censored at last simulated contact
S0016,ARM2,PFS,Progression-free survival (detected at assessment),113,0,progression detected at scheduled tumour assessment
S0016,ARM2,OS,Overall survival (death in the simulated horizon),140,1,censored at last simulated contact
S0017,ARM2,PFS,Progression-free survival (detected at assessment),673,0,progression detected at scheduled tumour assessment
S0017,ARM2,OS,Overall survival (death in the simulated horizon),693,1,censored at last simulated contact
S0018,ARM2,PFS,Progression-free survival (detected at assessment),617,1,censored at last tumour assessment
S0018,ARM2,OS,Overall survival (death in the simulated horizon),660,1,censored at last simulated contact
S0019,ARM2,PFS,Progression-free survival (detected at assessment),169,0,progression detected at scheduled tumour assessment
S0019,ARM2,OS,Overall survival (death in the simulated horizon),185,1,censored at last simulated contact
S0020,ARM2,PFS,Progression-free survival (detected at assessment),57,1,censored at last tumour assessment
S0020,ARM2,OS,Overall survival (death in the simulated horizon),104,0,death
S0021,ARM2,PFS,Progression-free survival (detected at assessment),337,0,progression detected at scheduled tumour assessment
S0021,ARM2,OS,Overall survival (death in the simulated horizon),349,1,censored at last simulated contact
S0022,ARM2,PFS,Progression-free survival (detected at assessment),57,1,censored at last tumour assessment
S0022,ARM2,OS,Overall survival (death in the simulated horizon),108,1,censored at last simulated contact
S0023,ARM2,PFS,Progression-free survival (detected at assessment),729,1,censored at last tumour assessment
S0023,ARM2,OS,Overall survival (death in the simulated horizon),730,1,censored at last simulated contact
S0024,ARM2,PFS,Progression-free survival (detected at assessment),113,0,progression detected at scheduled tumour assessment
S0024,ARM2,OS,Overall survival (death in the simulated horizon),140,1,censored at last simulated contact
S0025,ARM2,PFS,Progression-free survival (detected at assessment),169,0,progression detected at scheduled tumour assessment
S0025,ARM2,OS,Overall survival (death in the simulated horizon),199,1,censored at last simulated contact
S0026,ARM2,PFS,Progression-free survival (detected at assessment),729,1,censored at last tumour assessment
S0026,ARM2,OS,Overall survival (death in the simulated horizon),730,1,censored at last simulated contact
S0027,ARM2,PFS,Progression-free survival (detected at assessment),729,0,progression detected at scheduled tumour assessment
S0027,ARM2,OS,Overall survival (death in the simulated horizon),751,1,censored at last simulated contact
S0028,ARM2,PFS,Progression-free survival (detected at assessment),281,0,progression detected at scheduled tumour assessment
S0028,ARM2,OS,Overall survival (death in the simulated horizon),306,1,censored at last simulated contact
S0029,ARM2,PFS,Progression-free survival (detected at assessment),393,1,censored at last tumour assessment
S0029,ARM2,OS,Overall survival (death in the simulated horizon),434,1,censored at last simulated contact
S0030,ARM2,PFS,Progression-free survival (detected at assessment),449,0,progression detected at scheduled tumour assessment
S0030,ARM2,OS,Overall survival (death in the simulated horizon),455,1,censored at last simulated contact
S0031,ARM2,PFS,Progression-free survival (detected at assessment),225,1,censored at last tumour assessment
S0031,ARM2,OS,Overall survival (death in the simulated horizon),253,1,censored at last simulated contact
S0032,ARM2,PFS,Progression-free survival (detected at assessment),729,0,progression detected at scheduled tumour assessment
S0032,ARM2,OS,Overall survival (death in the simulated horizon),729,1,censored at last simulated contact
S0033,ARM2,PFS,Progression-free survival (detected at assessment),281,0,progression detected at scheduled tumour assessment
S0033,ARM2,OS,Overall survival (death in the simulated horizon),287,1,censored at last simulated contact
S0034,ARM2,PFS,Progression-free survival (detected at assessment),505,0,progression detected at scheduled tumour assessment
S0034,ARM2,OS,Overall survival (death in the simulated horizon),528,1,censored at last simulated contact
S0035,ARM2,PFS,Progression-free survival (detected at assessment),225,0,progression detected at scheduled tumour assessment
S0035,ARM2,OS,Overall survival (death in the simulated horizon),249,1,censored at last simulated contact
S0036,ARM2,PFS,Progression-free survival (detected at assessment),729,1,censored at last tumour assessment
S0036,ARM2,OS,Overall survival (death in the simulated horizon),730,1,censored at last simulated contact
S0037,ARM2,PFS,Progression-free survival (detected at assessment),169,0,progression detected at scheduled tumour assessment
S0037,ARM2,OS,Overall survival (death in the simulated horizon),172,1,censored at last simulated contact
S0038,ARM2,PFS,Progression-free survival (detected at assessment),57,0,progression detected at scheduled tumour assessment
S0038,ARM2,OS,Overall survival (death in the simulated horizon),87,1,censored at last simulated contact
S0039,ARM2,PFS,Progression-free survival (detected at assessment),729,1,censored at last tumour assessment
S0039,ARM2,OS,Overall survival (death in the simulated horizon),733,1,censored at last simulated contact
S0040,ARM2,PFS,Progression-free survival (detected at assessment),169,0,progression detected at scheduled tumour assessment
S0040,ARM2,OS,Overall survival (death in the simulated horizon),198,1,censored at last simulated contact
S0041,ARM2,PFS,Progression-free survival (detected at assessment),169,0,progression detected at scheduled tumour assessment
S0041,ARM2,OS,Overall survival (death in the simulated horizon),199,1,censored at last simulated contact
S0042,ARM2,PFS,Progression-free survival (detected at assessment),169,0,progression detected at scheduled tumour assessment
S0042,ARM2,OS,Overall survival (death in the simulated horizon),197,1,censored at last simulated contact
S0043,ARM2,PFS,Progression-free survival (detected at assessment),393,0,progression detected at scheduled tumour assessment
S0043,ARM2,OS,Overall survival (death in the simulated horizon),413,1,censored at last simulated contact
S0044,ARM2,PFS,Progression-free survival (detected at assessment),729,1,censored at last tumour assessment
S0044,ARM2,OS,Overall survival (death in the simulated horizon),730,1,censored at last simulated contact
S0045,ARM2,PFS,Progression-free survival (detected at assessment),57,0,progression detected at scheduled tumour assessment
S0045,ARM2,OS,Overall survival (death in the simulated horizon),84,1,censored at last simulated contact
S0046,ARM2,PFS,Progression-free survival (detected at assessment),281,0,progression detected at scheduled tumour assessment
S0046,ARM2,OS,Overall survival (death in the simulated horizon),298,1,censored at last simulated contact
S0047,ARM2,PFS,Progression-free survival (detected at assessment),57,0,progression detected at scheduled tumour assessment
S0047,ARM2,OS,Overall survival (death in the simulated horizon),77,1,censored at last simulated contact
S0048,ARM2,PFS,Progression-free survival (detected at assessment),729,1,censored at last tumour assessment
S0048,ARM2,OS,Overall survival (death in the simulated horizon),730,1,censored at last simulated contact
S0049,ARM2,PFS,Progression-free survival (detected at assessment),169,0,progression detected at scheduled tumour assessment
S0049,ARM2,OS,Overall survival (death in the simulated horizon),189,1,censored at last simulated contact
S0050,ARM2,PFS,Progression-free survival (detected at assessment),393,0,progression detected at scheduled tumour assessment
S0050,ARM2,OS,Overall survival (death in the simulated horizon),393,1,censored at last simulated contact
S0051,ARM2,PFS,Progression-free survival (detected at assessment),729,1,censored at last tumour assessment
S0051,ARM2,OS,Overall survival (death in the simulated horizon),730,1,censored at last simulated contact
S0052,ARM2,PFS,Progression-free survival (detected at assessment),729,1,censored at last tumour assessment
S0052,ARM2,OS,Overall survival (death in the simulated horizon),747,1,censored at last simulated contact
S0053,ARM2,PFS,Progression-free survival (detected at assessment),57,0,progression detected at scheduled tumour assessment
S0053,ARM2,OS,Overall survival (death in the simulated horizon),86,1,censored at last simulated contact
S0054,ARM2,PFS,Progression-free survival (detected at assessment),57,1,censored at last tumour assessment
S0054,ARM2,OS,Overall survival (death in the simulated horizon),108,0,death
S0055,ARM2,PFS,Progression-free survival (detected at assessment),225,0,progression detected at scheduled tumour assessment
S0055,ARM2,OS,Overall survival (death in the simulated horizon),238,1,censored at last simulated contact
S0056,ARM2,PFS,Progression-free survival (detected at assessment),729,1,censored at last tumour assessment
S0056,ARM2,OS,Overall survival (death in the simulated horizon),730,1,censored at last simulated contact
S0057,ARM2,PFS,Progression-free survival (detected at assessment),57,0,progression detected at scheduled tumour assessment
S0057,ARM2,OS,Overall survival (death in the simulated horizon),86,1,censored at last simulated contact
S0058,ARM2,PFS,Progression-free survival (detected at assessment),729,1,censored at last tumour assessment
S0058,ARM2,OS,Overall survival (death in the simulated horizon),730,1,censored at last simulated contact
S0059,ARM2,PFS,Progression-free survival (detected at assessment),113,0,progression detected at scheduled tumour assessment
S0059,ARM2,OS,Overall survival (death in the simulated horizon),127,1,censored at last simulated contact
S0060,ARM2,PFS,Progression-free survival (detected at assessment),41,1,censored at last tumour assessment
S0060,ARM2,OS,Overall survival (death in the simulated horizon),67,1,censored at last simulated contact
S0061,ARM2,PFS,Progression-free survival (detected at assessment),225,1,censored at last tumour assessment
S0061,ARM2,OS,Overall survival (death in the simulated horizon),259,1,censored at last simulated contact
S0062,ARM2,PFS,Progression-free survival (detected at assessment),225,0,progression detected at scheduled tumour assessment
S0062,ARM2,OS,Overall survival (death in the simulated horizon),255,1,censored at last simulated contact
S0063,ARM2,PFS,Progression-free survival (detected at assessment),729,1,censored at last tumour assessment
S0063,ARM2,OS,Overall survival (death in the simulated horizon),730,1,censored at last simulated contact
S0064,ARM2,PFS,Progression-free survival (detected at assessment),225,1,censored at last tumour assessment
S0064,ARM2,OS,Overall survival (death in the simulated horizon),234,1,censored at last simulated contact
S0065,ARM2,PFS,Progression-free survival (detected at assessment),505,0,progression detected at scheduled tumour assessment
S0065,ARM2,OS,Overall survival (death in the simulated horizon),505,1,censored at last simulated contact
S0066,ARM2,PFS,Progression-free survival (detected at assessment),281,0,progression detected at scheduled tumour assessment
S0066,ARM2,OS,Overall survival (death in the simulated horizon),285,1,censored at last simulated contact
S0067,ARM2,PFS,Progression-free survival (detected at assessment),113,0,progression detected at scheduled tumour assessment
S0067,ARM2,OS,Overall survival (death in the simulated horizon),142,1,censored at last simulated contact
S0068,ARM2,PFS,Progression-free survival (detected at assessment),673,0,progression detected at scheduled tumour assessment
S0068,ARM2,OS,Overall survival (death in the simulated horizon),673,1,censored at last simulated contact
S0069,ARM2,PFS,Progression-free survival (detected at assessment),281,0,progression detected at scheduled tumour assessment
S0069,ARM2,OS,Overall survival (death in the simulated horizon),297,1,censored at last simulated contact
S0070,ARM2,PFS,Progression-free survival (detected at assessment),57,0,progression detected at scheduled tumour assessment
S0070,ARM2,OS,Overall survival (death in the simulated horizon),85,1,censored at last simulated contact
