USUBJID,TRLNKID,TRTESTCD,TRORRES,TRORRESU,TRDY,VISIT
S0003,T01,LDIAM,53.2,mm,0,BASELINE
S0003,T02,LDIAM,15.3,mm,0,BASELINE
S0003,T03,LDIAM,15.7,mm,0,BASELINE
S0003,T04,LDIAM,51.4,mm,0,BASELINE
S0003,,SUMDIAM,135.6,mm,0,BASELINE
S0003,T01,LDIAM,27.9,mm,56,TA1
S0003,T02,LDIAM,8.0,mm,56,TA1
S0003,T03,LDIAM,8.2,mm,56,TA1
S0003,T04,LDIAM,27.0,mm,56,TA1
S0003,,SUMDIAM,71.1,mm,56,TA1
S0003,T01,LDIAM,36.1,mm,112,TA2
S0003,T02,LDIAM,10.4,mm,112,TA2
S0003,T03,LDIAM,10.7,mm,112,TA2
S0003,T04,LDIAM,34.9,mm,112,TA2
S0003,,SUMDIAM,92.1,mm,112,TA2
S0007,T01,LDIAM,31.0,mm,0,BASELINE
S0007,,SUMDIAM,31.0,mm,0,BASELINE
S0012,T01,LDIAM,16.7,mm,0,BASELINE
S0012,T02,LDIAM,35.3,mm,0,BASELINE
S0012,T03,LDIAM,14.1,mm,0,BASELINE
S0012,T04,LDIAM,14.2,mm,0,BASELINE
S0012,,SUMDIAM,80.3,mm,0,BASELINE
S0012,T01,LDIAM,8.3,mm,56,TA1
S0012,T02,LDIAM,17.6,mm,56,TA1
S0012,T03,LDIAM,7.0,mm,56,TA1
S0012,T04,LDIAM,7.1,mm,56,TA1
S0012,,SUMDIAM,40.1,mm,56,TA1
S0012,T01,LDIAM,0.0,mm,112,TA2
S0012,T02,LDIAM,0.0,mm,112,TA2
S0012,T03,LDIAM,0.0,mm,112,TA2
S0012,T04,LDIAM,0.0,mm,112,TA2
S0012,,SUMDIAM,0.0,mm,112,TA2
S0013,T01,LDIAM,23.8,mm,0,BASELINE
S0013,T02,LDIAM,58.4,mm,0,BASELINE
S0013,T03,LDIAM,52.1,mm,0,BASELINE
S0013,T04,LDIAM,26.6,mm,0,BASELINE
S0013,,SUMDIAM,160.9,mm,0,BASELINE
S0013,T01,LDIAM,13.7,mm,56,TA1
S0013,T02,LDIAM,33.7,mm,56,TA1
S0013,T03,LDIAM,30.0,mm,56,TA1
S0013,T04,LDIAM,15.3,mm,56,TA1
S0013,,SUMDIAM,92.7,mm,56,TA1
S0013,T01,LDIAM,3.6,mm,112,TA2
S0013,T02,LDIAM,8.9,mm,112,TA2
S0013,T03,LDIAM,8.0,mm,112,TA2
S0013,T04,LDIAM,4.1,mm,112,TA2
S0013,,SUMDIAM,24.6,mm,112,TA2
S0013,T01,LDIAM,3.6,mm,168,TA3
S0013,T02,LDIAM,8.9,mm,168,TA3
S0013,T03,LDIAM,8.0,mm,168,TA3
S0013,T04,LDIAM,4.1,mm,168,TA3
S0013,,SUMDIAM,24.6,mm,168,TA3
S0016,T01,LDIAM,57.4,mm,0,BASELINE
S0016,T02,LDIAM,38.6,mm,0,BASELINE
S0016,T03,LDIAM,47.1,mm,0,BASELINE
S0016,T04,LDIAM,35.2,mm,0,BASELINE
S0016,T05,LDIAM,59.7,mm,0,BASELINE
S0016,,SUMDIAM,238.0,mm,0,BASELINE
S0016,T01,LDIAM,71.8,mm,56,TA1
S0016,T02,LDIAM,48.2,mm,56,TA1
S0016,T03,LDIAM,58.9,mm,56,TA1
S0016,T04,LDIAM,44.0,mm,56,TA1
S0016,T05,LDIAM,74.6,mm,56,TA1
S0016,,SUMDIAM,297.5,mm,56,TA1
S0017,T01,LDIAM,15.8,mm,0,BASELINE
S0017,T02,LDIAM,52.5,mm,0,BASELINE
S0017,T03,LDIAM,10.4,mm,0,BASELINE
S0017,T04,LDIAM,28.0,mm,0,BASELINE
S0017,T05,LDIAM,52.3,mm,0,BASELINE
S0017,,SUMDIAM,159.0,mm,0,BASELINE
S0017,T01,LDIAM,16.6,mm,56,TA1
S0017,T02,LDIAM,55.1,mm,56,TA1
S0017,T03,LDIAM,10.9,mm,56,TA1
S0017,T04,LDIAM,29.4,mm,56,TA1
S0017,T05,LDIAM,54.9,mm,56,TA1
S0017,,SUMDIAM,166.8,mm,56,TA1
S0017,T01,LDIAM,17.3,mm,112,TA2
S0017,T02,LDIAM,57.6,mm,112,TA2
S0017,T03,LDIAM,11.4,mm,112,TA2
S0017,T04,LDIAM,30.7,mm,112,TA2
S0017,T05,LDIAM,57.4,mm,112,TA2
S0017,,SUMDIAM,174.5,mm,112,TA2
S0017,T01,LDIAM,17.3,mm,168,TA3
S0017,T02,LDIAM,57.6,mm,168,TA3
S0017,T03,LDIAM,11.4,mm,168,TA3
S0017,T04,LDIAM,30.7,mm,168,TA3
S0017,T05,LDIAM,57.4,mm,168,TA3
S0017,,SUMDIAM,174.5,mm,168,TA3
S0017,T01,LDIAM,17.3,mm,224,TA4
S0017,T02,LDIAM,57.6,mm,224,TA4
S0017,T03,LDIAM,11.4,mm,224,TA4
S0017,T04,LDIAM,30.7,mm,224,TA4
S0017,T05,LDIAM,57.4,mm,224,TA4
S0017,,SUMDIAM,174.5,mm,224,TA4
S0017,T01,LDIAM,17.3,mm,280,TA5
S0017,T02,LDIAM,57.6,mm,280,TA5
S0017,T03,LDIAM,11.4,mm,280,TA5
S0017,T04,LDIAM,30.7,mm,280,TA5
S0017,T05,LDIAM,57.4,mm,280,TA5
S0017,,SUMDIAM,174.5,mm,280,TA5
S0017,T01,LDIAM,17.3,mm,336,TA6
S0017,T02,LDIAM,57.6,mm,336,TA6
S0017,T03,LDIAM,11.4,mm,336,TA6
S0017,T04,LDIAM,30.7,mm,336,TA6
S0017,T05,LDIAM,57.4,mm,336,TA6
S0017,,SUMDIAM,174.5,mm,336,TA6
S0017,T01,LDIAM,17.3,mm,392,TA7
S0017,T02,LDIAM,57.6,mm,392,TA7
S0017,T03,LDIAM,11.4,mm,392,TA7
S0017,T04,LDIAM,30.7,mm,392,TA7
S0017,T05,LDIAM,57.4,mm,392,TA7
S0017,,SUMDIAM,174.5,mm,392,TA7
S0020,T01,LDIAM,28.8,mm,0,BASELINE
S0020,T02,LDIAM,38.4,mm,0,BASELINE
S0020,T03,LDIAM,50.3,mm,0,BASELINE
S0020,T04,LDIAM,17.5,mm,0,BASELINE
S0020,T05,LDIAM,33.8,mm,0,BASELINE
S0020,,SUMDIAM,168.8,mm,0,BASELINE
S0020,T01,LDIAM,24.0,mm,56,TA1
S0020,T02,LDIAM,32.0,mm,56,TA1
S0020,T03,LDIAM,41.9,mm,56,TA1
S0020,T04,LDIAM,14.6,mm,56,TA1
S0020,T05,LDIAM,28.2,mm,56,TA1
S0020,,SUMDIAM,140.6,mm,56,TA1
S0031,T01,LDIAM,56.9,mm,0,BASELINE
S0031,T02,LDIAM,31.4,mm,0,BASELINE
S0031,T03,LDIAM,42.2,mm,0,BASELINE
S0031,T04,LDIAM,16.4,mm,0,BASELINE
S0031,T05,LDIAM,59.2,mm,0,BASELINE
S0031,,SUMDIAM,206.1,mm,0,BASELINE
S0031,T01,LDIAM,30.5,mm,56,TA1
S0031,T02,LDIAM,16.8,mm,56,TA1
S0031,T03,LDIAM,22.6,mm,56,TA1
S0031,T04,LDIAM,8.8,mm,56,TA1
S0031,T05,LDIAM,31.7,mm,56,TA1
S0031,,SUMDIAM,110.3,mm,56,TA1
S0031,T01,LDIAM,4.0,mm,112,TA2
S0031,T02,LDIAM,2.2,mm,112,TA2
S0031,T03,LDIAM,3.0,mm,112,TA2
S0031,T04,LDIAM,1.2,mm,112,TA2
S0031,T05,LDIAM,4.2,mm,112,TA2
S0031,,SUMDIAM,14.5,mm,112,TA2
S0031,T01,LDIAM,4.0,mm,168,TA3
S0031,T02,LDIAM,2.2,mm,168,TA3
S0031,T03,LDIAM,3.0,mm,168,TA3
S0031,T04,LDIAM,1.2,mm,168,TA3
S0031,T05,LDIAM,4.2,mm,168,TA3
S0031,,SUMDIAM,14.5,mm,168,TA3
S0040,T01,LDIAM,47.8,mm,0,BASELINE
S0040,T02,LDIAM,39.1,mm,0,BASELINE
S0040,T03,LDIAM,55.1,mm,0,BASELINE
S0040,T04,LDIAM,24.0,mm,0,BASELINE
S0040,,SUMDIAM,166.0,mm,0,BASELINE
S0043,T01,LDIAM,53.8,mm,0,BASELINE
S0043,T02,LDIAM,57.8,mm,0,BASELINE
S0043,,SUMDIAM,111.6,mm,0,BASELINE
S0043,T01,LDIAM,46.8,mm,56,TA1
S0043,T02,LDIAM,50.3,mm,56,TA1
S0043,,SUMDIAM,97.1,mm,56,TA1
S0044,T01,LDIAM,11.2,mm,0,BASELINE
S0044,T02,LDIAM,39.2,mm,0,BASELINE
S0044,T03,LDIAM,32.7,mm,0,BASELINE
S0044,T04,LDIAM,34.9,mm,0,BASELINE
S0044,,SUMDIAM,118.0,mm,0,BASELINE
S0044,T01,LDIAM,9.0,mm,56,TA1
S0044,T02,LDIAM,31.6,mm,56,TA1
S0044,T03,LDIAM,26.4,mm,56,TA1
S0044,T04,LDIAM,28.2,mm,56,TA1
S0044,,SUMDIAM,95.3,mm,56,TA1
S0044,T01,LDIAM,6.9,mm,112,TA2
S0044,T02,LDIAM,24.1,mm,112,TA2
S0044,T03,LDIAM,20.1,mm,112,TA2
S0044,T04,LDIAM,21.5,mm,112,TA2
S0044,,SUMDIAM,72.5,mm,112,TA2
S0044,T01,LDIAM,6.9,mm,168,TA3
S0044,T02,LDIAM,24.1,mm,168,TA3
S0044,T03,LDIAM,20.1,mm,168,TA3
S0044,T04,LDIAM,21.5,mm,168,TA3
S0044,,SUMDIAM,72.5,mm,168,TA3
S0044,T01,LDIAM,6.9,mm,224,TA4
S0044,T02,LDIAM,24.1,mm,224,TA4
S0044,T03,LDIAM,20.1,mm,224,TA4
S0044,T04,LDIAM,21.5,mm,224,TA4
S0044,,SUMDIAM,72.5,mm,224,TA4
S0051,T01,LDIAM,46.6,mm,0,BASELINE
S0051,T02,LDIAM,36.6,mm,0,BASELINE
S0051,T03,LDIAM,58.3,mm,0,BASELINE
S0051,T04,LDIAM,13.7,mm,0,BASELINE
S0051,T05,LDIAM,35.6,mm,0,BASELINE
S0051,,SUMDIAM,190.8,mm,0,BASELINE
S0051,T01,LDIAM,50.1,mm,56,TA1
S0051,T02,LDIAM,39.4,mm,56,TA1
S0051,T03,LDIAM,62.7,mm,56,TA1
S0051,T04,LDIAM,14.7,mm,56,TA1
S0051,T05,LDIAM,38.3,mm,56,TA1
S0051,,SUMDIAM,205.2,mm,56,TA1
S0051,T01,LDIAM,53.6,mm,112,TA2
S0051,T02,LDIAM,42.1,mm,112,TA2
S0051,T03,LDIAM,67.1,mm,112,TA2
S0051,T04,LDIAM,15.8,mm,112,TA2
S0051,T05,LDIAM,41.0,mm,112,TA2
S0051,,SUMDIAM,219.6,mm,112,TA2
S0051,T01,LDIAM,53.6,mm,168,TA3
S0051,T02,LDIAM,42.1,mm,168,TA3
S0051,T03,LDIAM,67.1,mm,168,TA3
S0051,T04,LDIAM,15.8,mm,168,TA3
S0051,T05,LDIAM,41.0,mm,168,TA3
S0051,,SUMDIAM,219.6,mm,168,TA3
S0051,T01,LDIAM,53.6,mm,224,TA4
S0051,T02,LDIAM,42.1,mm,224,TA4
S0051,T03,LDIAM,67.1,mm,224,TA4
S0051,T04,LDIAM,15.8,mm,224,TA4
S0051,T05,LDIAM,41.0,mm,224,TA4
S0051,,SUMDIAM,219.6,mm,224,TA4
S0051,T01,LDIAM,53.6,mm,280,TA5
S0051,T02,LDIAM,42.1,mm,280,TA5
S0051,T03,LDIAM,67.1,mm,280,TA5
S0051,T04,LDIAM,15.8,mm,280,TA5
S0051,T05,LDIAM,41.0,mm,280,TA5
S0051,,SUMDIAM,219.6,mm,280,TA5
S0051,T01,LDIAM,58.2,mm,336,TA6
S0051,T02,LDIAM,45.8,mm,336,TA6
S0051,T03,LDIAM,72.9,mm,336,TA6
S0051,T04,LDIAM,17.1,mm,336,TA6
S0051,T05,LDIAM,44.5,mm,336,TA6
S0051,,SUMDIAM,238.5,mm,336,TA6
S0054,T01,LDIAM,43.7,mm,0,BASELINE
S0054,,SUMDIAM,43.7,mm,0,BASELINE
S0065,T01,LDIAM,40.0,mm,0,BASELINE
S0065,,SUMDIAM,40.0,mm,0,BASELINE
S0065,T01,LDIAM,26.3,mm,56,TA1
S0065,,SUMDIAM,26.3,mm,56,TA1
S0065,T01,LDIAM,33.6,mm,112,TA2
S0065,,SUMDIAM,33.6,mm,112,TA2
S0067,T01,LDIAM,47.5,mm,0,BASELINE
S0067,T02,LDIAM,58.7,mm,0,BASELINE
S0067,T03,LDIAM,53.4,mm,0,BASELINE
S0067,,SUMDIAM,159.6,mm,0,BASELINE
S0067,T01,LDIAM,34.4,mm,56,TA1
S0067,T02,LDIAM,42.5,mm,56,TA1
S0067,T03,LDIAM,38.6,mm,56,TA1
S0067,,SUMDIAM,115.5,mm,56,TA1
S0067,T01,LDIAM,21.2,mm,112,TA2
S0067,T02,LDIAM,26.2,mm,112,TA2
S0067,T03,LDIAM,23.9,mm,112,TA2
S0067,,SUMDIAM,71.3,mm,112,TA2
S0073,T01,LDIAM,53.9,mm,0,BASELINE
S0073,T02,LDIAM,59.3,mm,0,BASELINE
S0073,T03,LDIAM,43.2,mm,0,BASELINE
S0073,T04,LDIAM,41.0,mm,0,BASELINE
S0073,T05,LDIAM,45.8,mm,0,BASELINE
S0073,,SUMDIAM,243.2,mm,0,BASELINE
S0073,T01,LDIAM,67.4,mm,56,TA1
S0073,T02,LDIAM,74.1,mm,56,TA1
S0073,T03,LDIAM,54.0,mm,56,TA1
S0073,T04,LDIAM,51.2,mm,56,TA1
S0073,T05,LDIAM,57.2,mm,56,TA1
S0073,,SUMDIAM,304.0,mm,56,TA1
S0074,T01,LDIAM,48.0,mm,0,BASELINE
S0074,T02,LDIAM,47.9,mm,0,BASELINE
S0074,,SUMDIAM,95.9,mm,0,BASELINE
S0074,T01,LDIAM,49.2,mm,56,TA1
S0074,T02,LDIAM,49.1,mm,56,TA1
S0074,,SUMDIAM,98.3,mm,56,TA1
S0074,T01,LDIAM,50.4,mm,112,TA2
S0074,T02,LDIAM,50.3,mm,112,TA2
S0074,,SUMDIAM,100.7,mm,112,TA2
S0074,T01,LDIAM,50.4,mm,168,TA3
S0074,T02,LDIAM,50.3,mm,168,TA3
S0074,,SUMDIAM,100.7,mm,168,TA3
S0074,T01,LDIAM,60.0,mm,224,TA4
S0074,T02,LDIAM,59.9,mm,224,TA4
S0074,,SUMDIAM,119.9,mm,224,TA4
S0076,T01,LDIAM,56.5,mm,0,BASELINE
S0076,T02,LDIAM,25.0,mm,0,BASELINE
S0076,T03,LDIAM,31.5,mm,0,BASELINE
S0076,T04,LDIAM,11.9,mm,0,BASELINE
S0076,,SUMDIAM,124.9,mm,0,BASELINE
S0076,T01,LDIAM,52.1,mm,56,TA1
S0076,T02,LDIAM,23.0,mm,56,TA1
S0076,T03,LDIAM,29.0,mm,56,TA1
S0076,T04,LDIAM,11.0,mm,56,TA1
S0076,,SUMDIAM,115.1,mm,56,TA1
S0076,T01,LDIAM,47.7,mm,112,TA2
S0076,T02,LDIAM,21.1,mm,112,TA2
S0076,T03,LDIAM,26.6,mm,112,TA2
S0076,T04,LDIAM,10.0,mm,112,TA2
S0076,,SUMDIAM,105.3,mm,112,TA2
S0076,T01,LDIAM,47.7,mm,168,TA3
S0076,T02,LDIAM,21.1,mm,168,TA3
S0076,T03,LDIAM,26.6,mm,168,TA3
S0076,T04,LDIAM,10.0,mm,168,TA3
S0076,,SUMDIAM,105.3,mm,168,TA3
S0078,T01,LDIAM,54.6,mm,0,BASELINE
S0078,T02,LDIAM,53.4,mm,0,BASELINE
S0078,T03,LDIAM,41.2,mm,0,BASELINE
S0078,,SUMDIAM,149.2,mm,0,BASELINE
S0078,T01,LDIAM,30.3,mm,56,TA1
S0078,T02,LDIAM,29.6,mm,56,TA1
S0078,T03,LDIAM,22.9,mm,56,TA1
S0078,,SUMDIAM,82.8,mm,56,TA1
S0078,T01,LDIAM,6.0,mm,112,TA2
S0078,T02,LDIAM,5.9,mm,112,TA2
S0078,T03,LDIAM,4.5,mm,112,TA2
S0078,,SUMDIAM,16.4,mm,112,TA2
S0078,T01,LDIAM,6.0,mm,168,TA3
S0078,T02,LDIAM,5.9,mm,168,TA3
S0078,T03,LDIAM,4.5,mm,168,TA3
S0078,,SUMDIAM,16.4,mm,168,TA3
S0078,T01,LDIAM,6.0,mm,224,TA4
S0078,T02,LDIAM,5.9,mm,224,TA4
S0078,T03,LDIAM,4.5,mm,224,TA4
S0078,,SUMDIAM,16.4,mm,224,TA4
S0078,T01,LDIAM,6.0,mm,280,TA5
S0078,T02,LDIAM,5.9,mm,280,TA5
S0078,T03,LDIAM,4.5,mm,280,TA5
S0078,,SUMDIAM,16.4,mm,280,TA5
S0078,T01,LDIAM,6.0,mm,336,TA6
S0078,T02,LDIAM,5.9,mm,336,TA6
S0078,T03,LDIAM,4.5,mm,336,TA6
S0078,,SUMDIAM,16.4,mm,336,TA6
S0078,T01,LDIAM,6.0,mm,392,TA7
S0078,T02,LDIAM,5.9,mm,392,TA7
S0078,T03,LDIAM,4.5,mm,392,TA7
S0078,,SUMDIAM,16.4,mm,392,TA7
S0078,T01,LDIAM,6.0,mm,448,TA8
S0078,T02,LDIAM,5.9,mm,448,TA8
S0078,T03,LDIAM,4.5,mm,448,TA8
S0078,,SUMDIAM,16.4,mm,448,TA8
S0078,T01,LDIAM,6.0,mm,504,TA9
S0078,T02,LDIAM,5.9,mm,504,TA9
S0078,T03,LDIAM,4.5,mm,504,TA9
S0078,,SUMDIAM,16.4,mm,504,TA9
S0078,T01,LDIAM,6.0,mm,560,TA10
S0078,T02,LDIAM,5.9,mm,560,TA10
S0078,T03,LDIAM,4.5,mm,560,TA10
S0078,,SUMDIAM,16.4,mm,560,TA10
S0078,T01,LDIAM,6.0,mm,616,TA11
S0078,T02,LDIAM,5.9,mm,616,TA11
S0078,T03,LDIAM,4.5,mm,616,TA11
S0078,,SUMDIAM,16.4,mm,616,TA11
S0078,T01,LDIAM,6.0,mm,672,TA12
S0078,T02,LDIAM,5.9,mm,672,TA12
S0078,T03,LDIAM,4.5,mm,672,TA12
S0078,,SUMDIAM,16.4,mm,672,TA12
S0078,T01,LDIAM,6.0,mm,728,TA13
S0078,T02,LDIAM,5.9,mm,728,TA13
S0078,T03,LDIAM,4.5,mm,728,TA13
S0078,,SUMDIAM,16.4,mm,728,TA13
S0082,T01,LDIAM,24.7,mm,0,BASELINE
S0082,T02,LDIAM,56.7,mm,0,BASELINE
S0082,,SUMDIAM,81.4,mm,0,BASELINE
S0082,T01,LDIAM,23.3,mm,56,TA1
S0082,T02,LDIAM,53.6,mm,56,TA1
S0082,,SUMDIAM,76.9,mm,56,TA1
S0082,T01,LDIAM,22.0,mm,112,TA2
S0082,T02,LDIAM,50.4,mm,112,TA2
S0082,,SUMDIAM,72.4,mm,112,TA2
S0082,T01,LDIAM,22.0,mm,168,TA3
S0082,T02,LDIAM,50.4,mm,168,TA3
S0082,,SUMDIAM,72.4,mm,168,TA3
S0082,T01,LDIAM,22.0,mm,224,TA4
S0082,T02,LDIAM,50.4,mm,224,TA4
S0082,,SUMDIAM,72.4,mm,224,TA4
S0082,T01,LDIAM,22.0,mm,280,TA5
S0082,T02,LDIAM,50.4,mm,280,TA5
S0082,,SUMDIAM,72.4,mm,280,TA5
S0082,T01,LDIAM,22.0,mm,336,TA6
S0082,T02,LDIAM,50.4,mm,336,TA6
S0082,,SUMDIAM,72.4,mm,336,TA6
S0082,T01,LDIAM,22.0,mm,392,TA7
S0082,T02,LDIAM,50.4,mm,392,TA7
S0082,,SUMDIAM,72.4,mm,392,TA7
S0082,T01,LDIAM,27.6,mm,448,TA8
S0082,T02,LDIAM,63.4,mm,448,TA8
S0082,,SUMDIAM,91.0,mm,448,TA8
S0087,T01,LDIAM,18.1,mm,0,BASELINE
S0087,,SUMDIAM,18.1,mm,0,BASELINE
S0087,T01,LDIAM,18.0,mm,56,TA1
S0087,,SUMDIAM,18.0,mm,56,TA1
S0087,T01,LDIAM,17.9,mm,112,TA2
S0087,,SUMDIAM,17.9,mm,112,TA2
S0087,T01,LDIAM,17.9,mm,168,TA3
S0087,,SUMDIAM,17.9,mm,168,TA3
S0087,T01,LDIAM,17.9,mm,224,TA4
S0087,,SUMDIAM,17.9,mm,224,TA4
S0087,T01,LDIAM,17.9,mm,280,TA5
S0087,,SUMDIAM,17.9,mm,280,TA5
S0087,T01,LDIAM,17.9,mm,336,TA6
S0087,,SUMDIAM,17.9,mm,336,TA6
S0087,T01,LDIAM,23.9,mm,392,TA7
S0087,,SUMDIAM,23.9,mm,392,TA7
S0091,T01,LDIAM,15.9,mm,0,BASELINE
S0091,T02,LDIAM,37.3,mm,0,BASELINE
S0091,T03,LDIAM,34.4,mm,0,BASELINE
S0091,T04,LDIAM,22.6,mm,0,BASELINE
S0091,T05,LDIAM,51.8,mm,0,BASELINE
S0091,,SUMDIAM,162.0,mm,0,BASELINE
S0091,T01,LDIAM,11.9,mm,56,TA1
S0091,T02,LDIAM,28.0,mm,56,TA1
S0091,T03,LDIAM,25.8,mm,56,TA1
S0091,T04,LDIAM,17.0,mm,56,TA1
S0091,T05,LDIAM,38.9,mm,56,TA1
S0091,,SUMDIAM,121.7,mm,56,TA1
S0091,T01,LDIAM,8.0,mm,112,TA2
S0091,T02,LDIAM,18.7,mm,112,TA2
S0091,T03,LDIAM,17.3,mm,112,TA2
S0091,T04,LDIAM,11.4,mm,112,TA2
S0091,T05,LDIAM,26.0,mm,112,TA2
S0091,,SUMDIAM,81.4,mm,112,TA2
S0096,T01,LDIAM,20.5,mm,0,BASELINE
S0096,T02,LDIAM,26.0,mm,0,BASELINE
S0096,,SUMDIAM,46.5,mm,0,BASELINE
S0096,T01,LDIAM,10.2,mm,56,TA1
S0096,T02,LDIAM,13.0,mm,56,TA1
S0096,,SUMDIAM,23.2,mm,56,TA1
S0096,T01,LDIAM,0.0,mm,112,TA2
S0096,T02,LDIAM,0.0,mm,112,TA2
S0096,,SUMDIAM,0.0,mm,112,TA2
S0096,T01,LDIAM,0.0,mm,168,TA3
S0096,T02,LDIAM,0.0,mm,168,TA3
S0096,,SUMDIAM,0.0,mm,168,TA3
S0096,T01,LDIAM,0.0,mm,224,TA4
S0096,T02,LDIAM,0.0,mm,224,TA4
S0096,,SUMDIAM,0.0,mm,224,TA4
S0096,T01,LDIAM,0.0,mm,280,TA5
S0096,T02,LDIAM,0.0,mm,280,TA5
S0096,,SUMDIAM,0.0,mm,280,TA5
S0096,T01,LDIAM,0.0,mm,336,TA6
S0096,T02,LDIAM,0.0,mm,336,TA6
S0096,,SUMDIAM,0.0,mm,336,TA6
S0096,T01,LDIAM,0.0,mm,392,TA7
S0096,T02,LDIAM,0.0,mm,392,TA7
S0096,,SUMDIAM,0.0,mm,392,TA7
S0096,T01,LDIAM,0.0,mm,448,TA8
S0096,T02,LDIAM,0.0,mm,448,TA8
S0096,,SUMDIAM,0.0,mm,448,TA8
S0096,T01,LDIAM,0.0,mm,504,TA9
S0096,T02,LDIAM,0.0,mm,504,TA9
S0096,,SUMDIAM,0.0,mm,504,TA9
S0096,T01,LDIAM,0.0,mm,560,TA10
S0096,T02,LDIAM,0.0,mm,560,TA10
S0096,,SUMDIAM,0.0,mm,560,TA10
S0096,T01,LDIAM,0.0,mm,616,TA11
S0096,T02,LDIAM,0.0,mm,616,TA11
S0096,,SUMDIAM,0.0,mm,616,TA11
S0096,T01,LDIAM,0.0,mm,672,TA12
S0096,T02,LDIAM,0.0,mm,672,TA12
S0096,,SUMDIAM,0.0,mm,672,TA12
S0096,T01,LDIAM,0.0,mm,728,TA13
S0096,T02,LDIAM,0.0,mm,728,TA13
S0096,,SUMDIAM,0.0,mm,728,TA13
S0096,T01,LDIAM,0.0,mm,784,TA14
S0096,T02,LDIAM,0.0,mm,784,TA14
S0096,,SUMDIAM,0.0,mm,784,TA14
S0096,T01,LDIAM,2.6,mm,840,TA15
S0096,T02,LDIAM,3.4,mm,840,TA15
S0096,,SUMDIAM,6.0,mm,840,TA15
S0096,T01,LDIAM,2.6,mm,896,TA16
S0096,T02,LDIAM,3.4,mm,896,TA16
S0096,,SUMDIAM,6.0,mm,896,TA16
S0096,T01,LDIAM,2.6,mm,952,TA17
S0096,T02,LDIAM,3.4,mm,952,TA17
S0096,,SUMDIAM,6.0,mm,952,TA17
S0096,T01,LDIAM,2.6,mm,1008,TA18
S0096,T02,LDIAM,3.4,mm,1008,TA18
S0096,,SUMDIAM,6.0,mm,1008,TA18
S0096,T01,LDIAM,2.6,mm,1064,TA19
S0096,T02,LDIAM,3.4,mm,1064,TA19
S0096,,SUMDIAM,6.0,mm,1064,TA19
S0096,T01,LDIAM,2.6,mm,1120,TA20
S0096,T02,LDIAM,3.4,mm,1120,TA20
S0096,,SUMDIAM,6.0,mm,1120,TA20
S0096,T01,LDIAM,2.6,mm,1176,TA21
S0096,T02,LDIAM,3.4,mm,1176,TA21
S0096,,SUMDIAM,6.0,mm,1176,TA21
S0096,T01,LDIAM,2.6,mm,1232,TA22
S0096,T02,LDIAM,3.4,mm,1232,TA22
S0096,,SUMDIAM,6.0,mm,1232,TA22
S0096,T01,LDIAM,2.6,mm,1288,TA23
S0096,T02,LDIAM,3.4,mm,1288,TA23
S0096,,SUMDIAM,6.0,mm,1288,TA23
S0099,T01,LDIAM,56.6,mm,0,BASELINE
S0099,T02,LDIAM,33.1,mm,0,BASELINE
S0099,,SUMDIAM,89.7,mm,0,BASELINE
S0099,T01,LDIAM,70.8,mm,56,TA1
S0099,T02,LDIAM,41.4,mm,56,TA1
S0099,,SUMDIAM,112.1,mm,56,TA1
S0103,T01,LDIAM,28.3,mm,0,BASELINE
S0103,T02,LDIAM,34.3,mm,0,BASELINE
S0103,T03,LDIAM,54.2,mm,0,BASELINE
S0103,,SUMDIAM,116.8,mm,0,BASELINE
S0103,T01,LDIAM,25.5,mm,56,TA1
S0103,T02,LDIAM,30.9,mm,56,TA1
S0103,T03,LDIAM,48.8,mm,56,TA1
S0103,,SUMDIAM,105.2,mm,56,TA1
S0103,T01,LDIAM,32.0,mm,112,TA2
S0103,T02,LDIAM,38.8,mm,112,TA2
S0103,T03,LDIAM,61.3,mm,112,TA2
S0103,,SUMDIAM,132.1,mm,112,TA2
S0104,T01,LDIAM,27.7,mm,0,BASELINE
S0104,T02,LDIAM,48.4,mm,0,BASELINE
S0104,T03,LDIAM,55.1,mm,0,BASELINE
S0104,T04,LDIAM,22.8,mm,0,BASELINE
S0104,T05,LDIAM,35.6,mm,0,BASELINE
S0104,,SUMDIAM,189.6,mm,0,BASELINE
S0104,T01,LDIAM,30.2,mm,56,TA1
S0104,T02,LDIAM,52.8,mm,56,TA1
S0104,T03,LDIAM,60.2,mm,56,TA1
S0104,T04,LDIAM,24.9,mm,56,TA1
S0104,T05,LDIAM,38.9,mm,56,TA1
S0104,,SUMDIAM,207.0,mm,56,TA1
S0104,T01,LDIAM,32.8,mm,112,TA2
S0104,T02,LDIAM,57.3,mm,112,TA2
S0104,T03,LDIAM,65.2,mm,112,TA2
S0104,T04,LDIAM,27.0,mm,112,TA2
S0104,T05,LDIAM,42.1,mm,112,TA2
S0104,,SUMDIAM,224.4,mm,112,TA2
S0104,T01,LDIAM,32.8,mm,168,TA3
S0104,T02,LDIAM,57.3,mm,168,TA3
S0104,T03,LDIAM,65.2,mm,168,TA3
S0104,T04,LDIAM,27.0,mm,168,TA3
S0104,T05,LDIAM,42.1,mm,168,TA3
S0104,,SUMDIAM,224.4,mm,168,TA3
S0104,T01,LDIAM,32.8,mm,224,TA4
S0104,T02,LDIAM,57.3,mm,224,TA4
S0104,T03,LDIAM,65.2,mm,224,TA4
S0104,T04,LDIAM,27.0,mm,224,TA4
S0104,T05,LDIAM,42.1,mm,224,TA4
S0104,,SUMDIAM,224.4,mm,224,TA4
S0113,T01,LDIAM,30.5,mm,0,BASELINE
S0113,,SUMDIAM,30.5,mm,0,BASELINE
S0113,T01,LDIAM,38.1,mm,56,TA1
S0113,,SUMDIAM,38.1,mm,56,TA1
S0115,T01,LDIAM,23.1,mm,0,BASELINE
S0115,T02,LDIAM,32.9,mm,0,BASELINE
S0115,T03,LDIAM,45.6,mm,0,BASELINE
S0115,T04,LDIAM,50.8,mm,0,BASELINE
S0115,T05,LDIAM,50.2,mm,0,BASELINE
S0115,,SUMDIAM,202.6,mm,0,BASELINE
S0115,T01,LDIAM,23.6,mm,56,TA1
S0115,T02,LDIAM,33.6,mm,56,TA1
S0115,T03,LDIAM,46.6,mm,56,TA1
S0115,T04,LDIAM,51.9,mm,56,TA1
S0115,T05,LDIAM,51.3,mm,56,TA1
S0115,,SUMDIAM,206.9,mm,56,TA1
S0115,T01,LDIAM,24.1,mm,112,TA2
S0115,T02,LDIAM,34.3,mm,112,TA2
S0115,T03,LDIAM,47.5,mm,112,TA2
S0115,T04,LDIAM,53.0,mm,112,TA2
S0115,T05,LDIAM,52.3,mm,112,TA2
S0115,,SUMDIAM,211.2,mm,112,TA2
S0115,T01,LDIAM,24.1,mm,168,TA3
S0115,T02,LDIAM,34.3,mm,168,TA3
S0115,T03,LDIAM,47.5,mm,168,TA3
S0115,T04,LDIAM,53.0,mm,168,TA3
S0115,T05,LDIAM,52.3,mm,168,TA3
S0115,,SUMDIAM,211.2,mm,168,TA3
S0115,T01,LDIAM,24.1,mm,224,TA4
S0115,T02,LDIAM,34.3,mm,224,TA4
S0115,T03,LDIAM,47.5,mm,224,TA4
S0115,T04,LDIAM,53.0,mm,224,TA4
S0115,T05,LDIAM,52.3,mm,224,TA4
S0115,,SUMDIAM,211.2,mm,224,TA4
S0115,T01,LDIAM,24.1,mm,280,TA5
S0115,T02,LDIAM,34.3,mm,280,TA5
S0115,T03,LDIAM,47.5,mm,280,TA5
S0115,T04,LDIAM,53.0,mm,280,TA5
S0115,T05,LDIAM,52.3,mm,280,TA5
S0115,,SUMDIAM,211.2,mm,280,TA5
S0115,T01,LDIAM,24.1,mm,336,TA6
S0115,T02,LDIAM,34.3,mm,336,TA6
S0115,T03,LDIAM,47.5,mm,336,TA6
S0115,T04,LDIAM,53.0,mm,336,TA6
S0115,T05,LDIAM,52.3,mm,336,TA6
S0115,,SUMDIAM,211.2,mm,336,TA6
S0115,T01,LDIAM,24.1,mm,392,TA7
S0115,T02,LDIAM,34.3,mm,392,TA7
S0115,T03,LDIAM,47.5,mm,392,TA7
S0115,T04,LDIAM,53.0,mm,392,TA7
S0115,T05,LDIAM,52.3,mm,392,TA7
S0115,,SUMDIAM,211.2,mm,392,TA7
S0118,T01,LDIAM,60.0,mm,0,BASELINE
S0118,T02,LDIAM,12.4,mm,0,BASELINE
S0118,T03,LDIAM,20.6,mm,0,BASELINE
S0118,,SUMDIAM,93.0,mm,0,BASELINE
S0118,T01,LDIAM,35.3,mm,56,TA1
S0118,T02,LDIAM,7.3,mm,56,TA1
S0118,T03,LDIAM,12.1,mm,56,TA1
S0118,,SUMDIAM,54.8,mm,56,TA1
S0118,T01,LDIAM,45.4,mm,112,TA2
S0118,T02,LDIAM,9.4,mm,112,TA2
S0118,T03,LDIAM,15.6,mm,112,TA2
S0118,,SUMDIAM,70.4,mm,112,TA2
S0131,T01,LDIAM,53.7,mm,0,BASELINE
S0131,T02,LDIAM,33.9,mm,0,BASELINE
S0131,T03,LDIAM,35.8,mm,0,BASELINE
S0131,T04,LDIAM,48.2,mm,0,BASELINE
S0131,T05,LDIAM,29.1,mm,0,BASELINE
S0131,,SUMDIAM,200.7,mm,0,BASELINE
S0131,T01,LDIAM,37.6,mm,56,TA1
S0131,T02,LDIAM,23.7,mm,56,TA1
S0131,T03,LDIAM,25.0,mm,56,TA1
S0131,T04,LDIAM,33.7,mm,56,TA1
S0131,T05,LDIAM,20.4,mm,56,TA1
S0131,,SUMDIAM,140.4,mm,56,TA1
S0131,T01,LDIAM,21.4,mm,112,TA2
S0131,T02,LDIAM,13.5,mm,112,TA2
S0131,T03,LDIAM,14.3,mm,112,TA2
S0131,T04,LDIAM,19.3,mm,112,TA2
S0131,T05,LDIAM,11.6,mm,112,TA2
S0131,,SUMDIAM,80.2,mm,112,TA2
S0131,T01,LDIAM,21.4,mm,168,TA3
S0131,T02,LDIAM,13.5,mm,168,TA3
S0131,T03,LDIAM,14.3,mm,168,TA3
S0131,T04,LDIAM,19.3,mm,168,TA3
S0131,T05,LDIAM,11.6,mm,168,TA3
S0131,,SUMDIAM,80.2,mm,168,TA3
S0133,T01,LDIAM,38.8,mm,0,BASELINE
S0133,,SUMDIAM,38.8,mm,0,BASELINE
S0133,T01,LDIAM,27.5,mm,56,TA1
S0133,,SUMDIAM,27.5,mm,56,TA1
S0133,T01,LDIAM,16.1,mm,112,TA2
S0133,,SUMDIAM,16.1,mm,112,TA2
S0133,T01,LDIAM,16.1,mm,168,TA3
S0133,,SUMDIAM,16.1,mm,168,TA3
S0133,T01,LDIAM,16.1,mm,224,TA4
S0133,,SUMDIAM,16.1,mm,224,TA4
S0133,T01,LDIAM,16.1,mm,280,TA5
S0133,,SUMDIAM,16.1,mm,280,TA5
S0133,T01,LDIAM,16.1,mm,336,TA6
S0133,,SUMDIAM,16.1,mm,336,TA6
S0133,T01,LDIAM,16.1,mm,392,TA7
S0133,,SUMDIAM,16.1,mm,392,TA7
S0133,T01,LDIAM,16.1,mm,448,TA8
S0133,,SUMDIAM,16.1,mm,448,TA8
S0133,T01,LDIAM,22.1,mm,504,TA9
S0133,,SUMDIAM,22.1,mm,504,TA9
S0133,T01,LDIAM,22.1,mm,560,TA10
S0133,,SUMDIAM,22.1,mm,560,TA10
S0134,T01,LDIAM,57.7,mm,0,BASELINE
S0134,T02,LDIAM,23.6,mm,0,BASELINE
S0134,,SUMDIAM,81.3,mm,0,BASELINE
S0134,T01,LDIAM,33.2,mm,56,TA1
S0134,T02,LDIAM,13.6,mm,56,TA1
S0134,,SUMDIAM,46.8,mm,56,TA1
S0134,T01,LDIAM,8.7,mm,112,TA2
S0134,T02,LDIAM,3.6,mm,112,TA2
S0134,,SUMDIAM,12.2,mm,112,TA2
S0134,T01,LDIAM,8.7,mm,168,TA3
S0134,T02,LDIAM,3.6,mm,168,TA3
S0134,,SUMDIAM,12.2,mm,168,TA3
S0134,T01,LDIAM,8.7,mm,224,TA4
S0134,T02,LDIAM,3.6,mm,224,TA4
S0134,,SUMDIAM,12.2,mm,224,TA4
S0134,T01,LDIAM,8.7,mm,280,TA5
S0134,T02,LDIAM,3.6,mm,280,TA5
S0134,,SUMDIAM,12.2,mm,280,TA5
S0134,T01,LDIAM,8.7,mm,336,TA6
S0134,T02,LDIAM,3.6,mm,336,TA6
S0134,,SUMDIAM,12.2,mm,336,TA6
S0134,T01,LDIAM,8.7,mm,392,TA7
S0134,T02,LDIAM,3.6,mm,392,TA7
S0134,,SUMDIAM,12.2,mm,392,TA7
S0134,T01,LDIAM,13.3,mm,448,TA8
S0134,T02,LDIAM,5.4,mm,448,TA8
S0134,,SUMDIAM,18.7,mm,448,TA8
S0134,T01,LDIAM,13.3,mm,504,TA9
S0134,T02,LDIAM,5.4,mm,504,TA9
S0134,,SUMDIAM,18.7,mm,504,TA9
S0134,T01,LDIAM,13.3,mm,560,TA10
S0134,T02,LDIAM,5.4,mm,560,TA10
S0134,,SUMDIAM,18.7,mm,560,TA10
S0134,T01,LDIAM,13.3,mm,616,TA11
S0134,T02,LDIAM,5.4,mm,616,TA11
S0134,,SUMDIAM,18.7,mm,616,TA11
S0134,T01,LDIAM,13.3,mm,672,TA12
S0134,T02,LDIAM,5.4,mm,672,TA12
S0134,,SUMDIAM,18.7,mm,672,TA12
S0134,T01,LDIAM,13.3,mm,728,TA13
S0134,T02,LDIAM,5.4,mm,728,TA13
S0134,,SUMDIAM,18.7,mm,728,TA13
S0137,T01,LDIAM,43.3,mm,0,BASELINE
S0137,T02,LDIAM,32.4,mm,0,BASELINE
S0137,T03,LDIAM,42.5,mm,0,BASELINE
S0137,T04,LDIAM,14.5,mm,0,BASELINE
S0137,T05,LDIAM,43.5,mm,0,BASELINE
S0137,,SUMDIAM,176.2,mm,0,BASELINE
S0137,T01,LDIAM,24.1,mm,56,TA1
S0137,T02,LDIAM,18.0,mm,56,TA1
S0137,T03,LDIAM,23.6,mm,56,TA1
S0137,T04,LDIAM,8.1,mm,56,TA1
S0137,T05,LDIAM,24.2,mm,56,TA1
S0137,,SUMDIAM,98.0,mm,56,TA1
S0137,T01,LDIAM,4.9,mm,112,TA2
S0137,T02,LDIAM,3.6,mm,112,TA2
S0137,T03,LDIAM,4.8,mm,112,TA2
S0137,T04,LDIAM,1.6,mm,112,TA2
S0137,T05,LDIAM,4.9,mm,112,TA2
S0137,,SUMDIAM,19.8,mm,112,TA2
S0137,T01,LDIAM,4.9,mm,168,TA3
S0137,T02,LDIAM,3.6,mm,168,TA3
S0137,T03,LDIAM,4.8,mm,168,TA3
S0137,T04,LDIAM,1.6,mm,168,TA3
S0137,T05,LDIAM,4.9,mm,168,TA3
S0137,,SUMDIAM,19.8,mm,168,TA3
S0137,T01,LDIAM,4.9,mm,224,TA4
S0137,T02,LDIAM,3.6,mm,224,TA4
S0137,T03,LDIAM,4.8,mm,224,TA4
S0137,T04,LDIAM,1.6,mm,224,TA4
S0137,T05,LDIAM,4.9,mm,224,TA4
S0137,,SUMDIAM,19.8,mm,224,TA4
S0137,T01,LDIAM,4.9,mm,280,TA5
S0137,T02,LDIAM,3.6,mm,280,TA5
S0137,T03,LDIAM,4.8,mm,280,TA5
S0137,T04,LDIAM,1.6,mm,280,TA5
S0137,T05,LDIAM,4.9,mm,280,TA5
S0137,,SUMDIAM,19.8,mm,280,TA5
S0137,T01,LDIAM,4.9,mm,336,TA6
S0137,T02,LDIAM,3.6,mm,336,TA6
S0137,T03,LDIAM,4.8,mm,336,TA6
S0137,T04,LDIAM,1.6,mm,336,TA6
S0137,T05,LDIAM,4.9,mm,336,TA6
S0137,,SUMDIAM,19.8,mm,336,TA6
S0137,T01,LDIAM,4.9,mm,392,TA7
S0137,T02,LDIAM,3.6,mm,392,TA7
S0137,T03,LDIAM,4.8,mm,392,TA7
S0137,T04,LDIAM,1.6,mm,392,TA7
S0137,T05,LDIAM,4.9,mm,392,TA7
S0137,,SUMDIAM,19.8,mm,392,TA7
S0137,T01,LDIAM,4.9,mm,448,TA8
S0137,T02,LDIAM,3.6,mm,448,TA8
S0137,T03,LDIAM,4.8,mm,448,TA8
S0137,T04,LDIAM,1.6,mm,448,TA8
S0137,T05,LDIAM,4.9,mm,448,TA8
S0137,,SUMDIAM,19.8,mm,448,TA8
S0137,T01,LDIAM,4.9,mm,504,TA9
S0137,T02,LDIAM,3.6,mm,504,TA9
S0137,T03,LDIAM,4.8,mm,504,TA9
S0137,T04,LDIAM,1.6,mm,504,TA9
S0137,T05,LDIAM,4.9,mm,504,TA9
S0137,,SUMDIAM,19.8,mm,504,TA9
S0137,T01,LDIAM,4.9,mm,560,TA10
S0137,T02,LDIAM,3.6,mm,560,TA10
S0137,T03,LDIAM,4.8,mm,560,TA10
S0137,T04,LDIAM,1.6,mm,560,TA10
S0137,T05,LDIAM,4.9,mm,560,TA10
S0137,,SUMDIAM,19.8,mm,560,TA10
S0137,T01,LDIAM,4.9,mm,616,TA11
S0137,T02,LDIAM,3.6,mm,616,TA11
S0137,T03,LDIAM,4.8,mm,616,TA11
S0137,T04,LDIAM,1.6,mm,616,TA11
S0137,T05,LDIAM,4.9,mm,616,TA11
S0137,,SUMDIAM,19.8,mm,616,TA11
S0141,T01,LDIAM,19.1,mm,0,BASELINE
S0141,T02,LDIAM,18.1,mm,0,BASELINE
S0141,T03,LDIAM,48.5,mm,0,BASELINE
S0141,,SUMDIAM,85.7,mm,0,BASELINE
S0141,T01,LDIAM,16.0,mm,56,TA1
S0141,T02,LDIAM,15.2,mm,56,TA1
S0141,T03,LDIAM,40.7,mm,56,TA1
S0141,,SUMDIAM,71.9,mm,56,TA1
S0141,T01,LDIAM,12.9,mm,112,TA2
S0141,T02,LDIAM,12.2,mm,112,TA2
S0141,T03,LDIAM,32.8,mm,112,TA2
S0141,,SUMDIAM,58.0,mm,112,TA2
S0141,T01,LDIAM,12.9,mm,168,TA3
S0141,T02,LDIAM,12.2,mm,168,TA3
S0141,T03,LDIAM,32.8,mm,168,TA3
S0141,,SUMDIAM,58.0,mm,168,TA3
S0141,T01,LDIAM,12.9,mm,224,TA4
S0141,T02,LDIAM,12.2,mm,224,TA4
S0141,T03,LDIAM,32.8,mm,224,TA4
S0141,,SUMDIAM,58.0,mm,224,TA4
S0141,T01,LDIAM,12.9,mm,280,TA5
S0141,T02,LDIAM,12.2,mm,280,TA5
S0141,T03,LDIAM,32.8,mm,280,TA5
S0141,,SUMDIAM,58.0,mm,280,TA5
S0141,T01,LDIAM,12.9,mm,336,TA6
S0141,T02,LDIAM,12.2,mm,336,TA6
S0141,T03,LDIAM,32.8,mm,336,TA6
S0141,,SUMDIAM,58.0,mm,336,TA6
S0141,T01,LDIAM,12.9,mm,392,TA7
S0141,T02,LDIAM,12.2,mm,392,TA7
S0141,T03,LDIAM,32.8,mm,392,TA7
S0141,,SUMDIAM,58.0,mm,392,TA7
S0141,T01,LDIAM,12.9,mm,448,TA8
S0141,T02,LDIAM,12.2,mm,448,TA8
S0141,T03,LDIAM,32.8,mm,448,TA8
S0141,,SUMDIAM,58.0,mm,448,TA8
S0141,T01,LDIAM,12.9,mm,504,TA9
S0141,T02,LDIAM,12.2,mm,504,TA9
S0141,T03,LDIAM,32.8,mm,504,TA9
S0141,,SUMDIAM,58.0,mm,504,TA9
S0141,T01,LDIAM,12.9,mm,560,TA10
S0141,T02,LDIAM,12.2,mm,560,TA10
S0141,T03,LDIAM,32.8,mm,560,TA10
S0141,,SUMDIAM,58.0,mm,560,TA10
S0141,T01,LDIAM,12.9,mm,616,TA11
S0141,T02,LDIAM,12.2,mm,616,TA11
S0141,T03,LDIAM,32.8,mm,616,TA11
S0141,,SUMDIAM,58.0,mm,616,TA11
S0141,T01,LDIAM,12.9,mm,672,TA12
S0141,T02,LDIAM,12.2,mm,672,TA12
S0141,T03,LDIAM,32.8,mm,672,TA12
S0141,,SUMDIAM,58.0,mm,672,TA12
S0141,T01,LDIAM,12.9,mm,728,TA13
S0141,T02,LDIAM,12.2,mm,728,TA13
S0141,T03,LDIAM,32.8,mm,728,TA13
S0141,,SUMDIAM,58.0,mm,728,TA13
S0141,T01,LDIAM,12.9,mm,784,TA14
S0141,T02,LDIAM,12.2,mm,784,TA14
S0141,T03,LDIAM,32.8,mm,784,TA14
S0141,,SUMDIAM,58.0,mm,784,TA14
S0141,T01,LDIAM,12.9,mm,840,TA15
S0141,T02,LDIAM,12.2,mm,840,TA15
S0141,T03,LDIAM,32.8,mm,840,TA15
S0141,,SUMDIAM,58.0,mm,840,TA15
S0141,T01,LDIAM,16.5,mm,896,TA16
S0141,T02,LDIAM,15.6,mm,896,TA16
S0141,T03,LDIAM,41.8,mm,896,TA16
S0141,,SUMDIAM,73.9,mm,896,TA16
S0144,T01,LDIAM,28.8,mm,0,BASELINE
S0144,T02,LDIAM,19.9,mm,0,BASELINE
S0144,T03,LDIAM,25.2,mm,0,BASELINE
S0144,,SUMDIAM,73.9,mm,0,BASELINE
S0147,T01,LDIAM,15.8,mm,0,BASELINE
S0147,T02,LDIAM,20.2,mm,0,BASELINE
S0147,,SUMDIAM,36.0,mm,0,BASELINE
S0147,T01,LDIAM,12.7,mm,56,TA1
S0147,T02,LDIAM,16.3,mm,56,TA1
S0147,,SUMDIAM,29.0,mm,56,TA1
S0147,T01,LDIAM,9.7,mm,112,TA2
S0147,T02,LDIAM,12.4,mm,112,TA2
S0147,,SUMDIAM,22.0,mm,112,TA2
S0147,T01,LDIAM,9.7,mm,168,TA3
S0147,T02,LDIAM,12.4,mm,168,TA3
S0147,,SUMDIAM,22.0,mm,168,TA3
S0147,T01,LDIAM,9.7,mm,224,TA4
S0147,T02,LDIAM,12.4,mm,224,TA4
S0147,,SUMDIAM,22.0,mm,224,TA4
S0147,T01,LDIAM,9.7,mm,280,TA5
S0147,T02,LDIAM,12.4,mm,280,TA5
S0147,,SUMDIAM,22.0,mm,280,TA5
S0147,T01,LDIAM,9.7,mm,336,TA6
S0147,T02,LDIAM,12.4,mm,336,TA6
S0147,,SUMDIAM,22.0,mm,336,TA6
S0147,T01,LDIAM,9.7,mm,392,TA7
S0147,T02,LDIAM,12.4,mm,392,TA7
S0147,,SUMDIAM,22.0,mm,392,TA7
S0147,T01,LDIAM,12.4,mm,448,TA8
S0147,T02,LDIAM,15.8,mm,448,TA8
S0147,,SUMDIAM,28.2,mm,448,TA8
S0153,T01,LDIAM,25.4,mm,0,BASELINE
S0153,T02,LDIAM,44.6,mm,0,BASELINE
S0153,T03,LDIAM,13.3,mm,0,BASELINE
S0153,T04,LDIAM,34.5,mm,0,BASELINE
S0153,T05,LDIAM,10.9,mm,0,BASELINE
S0153,,SUMDIAM,128.7,mm,0,BASELINE
S0153,T01,LDIAM,22.5,mm,56,TA1
S0153,T02,LDIAM,39.5,mm,56,TA1
S0153,T03,LDIAM,11.8,mm,56,TA1
S0153,T04,LDIAM,30.6,mm,56,TA1
S0153,T05,LDIAM,9.7,mm,56,TA1
S0153,,SUMDIAM,114.1,mm,56,TA1
S0153,T01,LDIAM,28.3,mm,112,TA2
S0153,T02,LDIAM,49.7,mm,112,TA2
S0153,T03,LDIAM,14.8,mm,112,TA2
S0153,T04,LDIAM,38.4,mm,112,TA2
S0153,T05,LDIAM,12.1,mm,112,TA2
S0153,,SUMDIAM,143.4,mm,112,TA2
S0154,T01,LDIAM,13.0,mm,0,BASELINE
S0154,T02,LDIAM,46.8,mm,0,BASELINE
S0154,T03,LDIAM,40.3,mm,0,BASELINE
S0154,T04,LDIAM,38.3,mm,0,BASELINE
S0154,,SUMDIAM,138.4,mm,0,BASELINE
S0154,T01,LDIAM,16.2,mm,56,TA1
S0154,T02,LDIAM,58.5,mm,56,TA1
S0154,T03,LDIAM,50.4,mm,56,TA1
S0154,T04,LDIAM,47.9,mm,56,TA1
S0154,,SUMDIAM,173.0,mm,56,TA1
S0161,T01,LDIAM,48.9,mm,0,BASELINE
S0161,T02,LDIAM,34.2,mm,0,BASELINE
S0161,T03,LDIAM,50.7,mm,0,BASELINE
S0161,T04,LDIAM,54.2,mm,0,BASELINE
S0161,,SUMDIAM,188.0,mm,0,BASELINE
S0161,T01,LDIAM,35.4,mm,56,TA1
S0161,T02,LDIAM,24.8,mm,56,TA1
S0161,T03,LDIAM,36.7,mm,56,TA1
S0161,T04,LDIAM,39.2,mm,56,TA1
S0161,,SUMDIAM,136.1,mm,56,TA1
S0161,T01,LDIAM,21.9,mm,112,TA2
S0161,T02,LDIAM,15.3,mm,112,TA2
S0161,T03,LDIAM,22.7,mm,112,TA2
S0161,T04,LDIAM,24.3,mm,112,TA2
S0161,,SUMDIAM,84.2,mm,112,TA2
S0161,T01,LDIAM,21.9,mm,168,TA3
S0161,T02,LDIAM,15.3,mm,168,TA3
S0161,T03,LDIAM,22.7,mm,168,TA3
S0161,T04,LDIAM,24.3,mm,168,TA3
S0161,,SUMDIAM,84.2,mm,168,TA3
S0161,T01,LDIAM,21.9,mm,224,TA4
S0161,T02,LDIAM,15.3,mm,224,TA4
S0161,T03,LDIAM,22.7,mm,224,TA4
S0161,T04,LDIAM,24.3,mm,224,TA4
S0161,,SUMDIAM,84.2,mm,224,TA4
S0161,T01,LDIAM,21.9,mm,280,TA5
S0161,T02,LDIAM,15.3,mm,280,TA5
S0161,T03,LDIAM,22.7,mm,280,TA5
S0161,T04,LDIAM,24.3,mm,280,TA5
S0161,,SUMDIAM,84.2,mm,280,TA5
S0161,T01,LDIAM,21.9,mm,336,TA6
S0161,T02,LDIAM,15.3,mm,336,TA6
S0161,T03,LDIAM,22.7,mm,336,TA6
S0161,T04,LDIAM,24.3,mm,336,TA6
S0161,,SUMDIAM,84.2,mm,336,TA6
S0161,T01,LDIAM,21.9,mm,392,TA7
S0161,T02,LDIAM,15.3,mm,392,TA7
S0161,T03,LDIAM,22.7,mm,392,TA7
S0161,T04,LDIAM,24.3,mm,392,TA7
S0161,,SUMDIAM,84.2,mm,392,TA7
S0161,T01,LDIAM,21.9,mm,448,TA8
S0161,T02,LDIAM,15.3,mm,448,TA8
S0161,T03,LDIAM,22.7,mm,448,TA8
S0161,T04,LDIAM,24.3,mm,448,TA8
S0161,,SUMDIAM,84.2,mm,448,TA8
S0161,T01,LDIAM,21.9,mm,504,TA9
S0161,T02,LDIAM,15.3,mm,504,TA9
S0161,T03,LDIAM,22.7,mm,504,TA9
S0161,T04,LDIAM,24.3,mm,504,TA9
S0161,,SUMDIAM,84.2,mm,504,TA9
S0161,T01,LDIAM,21.9,mm,560,TA10
S0161,T02,LDIAM,15.3,mm,560,TA10
S0161,T03,LDIAM,22.7,mm,560,TA10
S0161,T04,LDIAM,24.3,mm,560,TA10
S0161,,SUMDIAM,84.2,mm,560,TA10
S0161,T01,LDIAM,21.9,mm,616,TA11
S0161,T02,LDIAM,15.3,mm,616,TA11
S0161,T03,LDIAM,22.7,mm,616,TA11
S0161,T04,LDIAM,24.3,mm,616,TA11
S0161,,SUMDIAM,84.2,mm,616,TA11
S0161,T01,LDIAM,21.9,mm,672,TA12
S0161,T02,LDIAM,15.3,mm,672,TA12
S0161,T03,LDIAM,22.7,mm,672,TA12
S0161,T04,LDIAM,24.3,mm,672,TA12
S0161,,SUMDIAM,84.2,mm,672,TA12
S0161,T01,LDIAM,21.9,mm,728,TA13
S0161,T02,LDIAM,15.3,mm,728,TA13
S0161,T03,LDIAM,22.7,mm,728,TA13
S0161,T04,LDIAM,24.3,mm,728,TA13
S0161,,SUMDIAM,84.2,mm,728,TA13
S0161,T01,LDIAM,21.9,mm,784,TA14
S0161,T02,LDIAM,15.3,mm,784,TA14
S0161,T03,LDIAM,22.7,mm,784,TA14
S0161,T04,LDIAM,24.3,mm,784,TA14
S0161,,SUMDIAM,84.2,mm,784,TA14
S0161,T01,LDIAM,21.9,mm,840,TA15
S0161,T02,LDIAM,15.3,mm,840,TA15
S0161,T03,LDIAM,22.7,mm,840,TA15
S0161,T04,LDIAM,24.3,mm,840,TA15
S0161,,SUMDIAM,84.2,mm,840,TA15
S0161,T01,LDIAM,21.9,mm,896,TA16
S0161,T02,LDIAM,15.3,mm,896,TA16
S0161,T03,LDIAM,22.7,mm,896,TA16
S0161,T04,LDIAM,24.3,mm,896,TA16
S0161,,SUMDIAM,84.2,mm,896,TA16
S0161,T01,LDIAM,21.9,mm,952,TA17
S0161,T02,LDIAM,15.3,mm,952,TA17
S0161,T03,LDIAM,22.7,mm,952,TA17
S0161,T04,LDIAM,24.3,mm,952,TA17
S0161,,SUMDIAM,84.2,mm,952,TA17
S0163,T01,LDIAM,27.7,mm,0,BASELINE
S0163,T02,LDIAM,57.4,mm,0,BASELINE
S0163,,SUMDIAM,85.1,mm,0,BASELINE
S0163,T01,LDIAM,34.6,mm,56,TA1
S0163,T02,LDIAM,71.8,mm,56,TA1
S0163,,SUMDIAM,106.4,mm,56,TA1
S0166,T01,LDIAM,32.0,mm,0,BASELINE
S0166,,SUMDIAM,32.0,mm,0,BASELINE
S0166,T01,LDIAM,29.2,mm,56,TA1
S0166,,SUMDIAM,29.2,mm,56,TA1
S0166,T01,LDIAM,26.4,mm,112,TA2
S0166,,SUMDIAM,26.4,mm,112,TA2
S0173,T01,LDIAM,31.1,mm,0,BASELINE
S0173,T02,LDIAM,10.6,mm,0,BASELINE
S0173,T03,LDIAM,31.0,mm,0,BASELINE
S0173,,SUMDIAM,72.7,mm,0,BASELINE
S0173,T01,LDIAM,19.4,mm,56,TA1
S0173,T02,LDIAM,6.6,mm,56,TA1
S0173,T03,LDIAM,19.3,mm,56,TA1
S0173,,SUMDIAM,45.3,mm,56,TA1
S0173,T01,LDIAM,7.6,mm,112,TA2
S0173,T02,LDIAM,2.6,mm,112,TA2
S0173,T03,LDIAM,7.6,mm,112,TA2
S0173,,SUMDIAM,17.9,mm,112,TA2
S0173,T01,LDIAM,7.6,mm,168,TA3
S0173,T02,LDIAM,2.6,mm,168,TA3
S0173,T03,LDIAM,7.6,mm,168,TA3
S0173,,SUMDIAM,17.9,mm,168,TA3
S0173,T01,LDIAM,7.6,mm,224,TA4
S0173,T02,LDIAM,2.6,mm,224,TA4
S0173,T03,LDIAM,7.6,mm,224,TA4
S0173,,SUMDIAM,17.9,mm,224,TA4
S0173,T01,LDIAM,7.6,mm,280,TA5
S0173,T02,LDIAM,2.6,mm,280,TA5
S0173,T03,LDIAM,7.6,mm,280,TA5
S0173,,SUMDIAM,17.9,mm,280,TA5
S0173,T01,LDIAM,7.6,mm,336,TA6
S0173,T02,LDIAM,2.6,mm,336,TA6
S0173,T03,LDIAM,7.6,mm,336,TA6
S0173,,SUMDIAM,17.9,mm,336,TA6
S0173,T01,LDIAM,7.6,mm,392,TA7
S0173,T02,LDIAM,2.6,mm,392,TA7
S0173,T03,LDIAM,7.6,mm,392,TA7
S0173,,SUMDIAM,17.9,mm,392,TA7
S0173,T01,LDIAM,7.6,mm,448,TA8
S0173,T02,LDIAM,2.6,mm,448,TA8
S0173,T03,LDIAM,7.6,mm,448,TA8
S0173,,SUMDIAM,17.9,mm,448,TA8
S0173,T01,LDIAM,7.6,mm,504,TA9
S0173,T02,LDIAM,2.6,mm,504,TA9
S0173,T03,LDIAM,7.6,mm,504,TA9
S0173,,SUMDIAM,17.9,mm,504,TA9
S0173,T01,LDIAM,7.6,mm,560,TA10
S0173,T02,LDIAM,2.6,mm,560,TA10
S0173,T03,LDIAM,7.6,mm,560,TA10
S0173,,SUMDIAM,17.9,mm,560,TA10
S0173,T01,LDIAM,7.6,mm,616,TA11
S0173,T02,LDIAM,2.6,mm,616,TA11
S0173,T03,LDIAM,7.6,mm,616,TA11
S0173,,SUMDIAM,17.9,mm,616,TA11
S0173,T01,LDIAM,7.6,mm,672,TA12
S0173,T02,LDIAM,2.6,mm,672,TA12
S0173,T03,LDIAM,7.6,mm,672,TA12
S0173,,SUMDIAM,17.9,mm,672,TA12
S0173,T01,LDIAM,7.6,mm,728,TA13
S0173,T02,LDIAM,2.6,mm,728,TA13
S0173,T03,LDIAM,7.6,mm,728,TA13
S0173,,SUMDIAM,17.9,mm,728,TA13
S0173,T01,LDIAM,7.6,mm,784,TA14
S0173,T02,LDIAM,2.6,mm,784,TA14
S0173,T03,LDIAM,7.6,mm,784,TA14
S0173,,SUMDIAM,17.9,mm,784,TA14
S0175,T01,LDIAM,27.1,mm,0,BASELINE
S0175,T02,LDIAM,57.0,mm,0,BASELINE
S0175,T03,LDIAM,19.8,mm,0,BASELINE
S0175,T04,LDIAM,57.3,mm,0,BASELINE
S0175,T05,LDIAM,39.9,mm,0,BASELINE
S0175,,SUMDIAM,201.1,mm,0,BASELINE
S0175,T01,LDIAM,26.0,mm,56,TA1
S0175,T02,LDIAM,54.6,mm,56,TA1
S0175,T03,LDIAM,19.0,mm,56,TA1
S0175,T04,LDIAM,54.9,mm,56,TA1
S0175,T05,LDIAM,38.2,mm,56,TA1
S0175,,SUMDIAM,192.6,mm,56,TA1
S0175,T01,LDIAM,24.8,mm,112,TA2
S0175,T02,LDIAM,52.2,mm,112,TA2
S0175,T03,LDIAM,18.1,mm,112,TA2
S0175,T04,LDIAM,52.5,mm,112,TA2
S0175,T05,LDIAM,36.5,mm,112,TA2
S0175,,SUMDIAM,184.2,mm,112,TA2
S0176,T01,LDIAM,17.7,mm,0,BASELINE
S0176,T02,LDIAM,39.1,mm,0,BASELINE
S0176,T03,LDIAM,20.8,mm,0,BASELINE
S0176,T04,LDIAM,52.2,mm,0,BASELINE
S0176,,SUMDIAM,129.8,mm,0,BASELINE
S0176,T01,LDIAM,22.1,mm,56,TA1
S0176,T02,LDIAM,48.9,mm,56,TA1
S0176,T03,LDIAM,26.0,mm,56,TA1
S0176,T04,LDIAM,65.2,mm,56,TA1
S0176,,SUMDIAM,162.2,mm,56,TA1
S0178,T01,LDIAM,32.9,mm,0,BASELINE
S0178,T02,LDIAM,26.8,mm,0,BASELINE
S0178,T03,LDIAM,30.7,mm,0,BASELINE
S0178,T04,LDIAM,42.9,mm,0,BASELINE
S0178,T05,LDIAM,16.9,mm,0,BASELINE
S0178,,SUMDIAM,150.2,mm,0,BASELINE
S0178,T01,LDIAM,22.0,mm,56,TA1
S0178,T02,LDIAM,17.9,mm,56,TA1
S0178,T03,LDIAM,20.5,mm,56,TA1
S0178,T04,LDIAM,28.7,mm,56,TA1
S0178,T05,LDIAM,11.3,mm,56,TA1
S0178,,SUMDIAM,100.4,mm,56,TA1
S0178,T01,LDIAM,11.1,mm,112,TA2
S0178,T02,LDIAM,9.0,mm,112,TA2
S0178,T03,LDIAM,10.3,mm,112,TA2
S0178,T04,LDIAM,14.4,mm,112,TA2
S0178,T05,LDIAM,5.7,mm,112,TA2
S0178,,SUMDIAM,50.5,mm,112,TA2
S0184,T01,LDIAM,43.5,mm,0,BASELINE
S0184,T02,LDIAM,53.3,mm,0,BASELINE
S0184,T03,LDIAM,58.2,mm,0,BASELINE
S0184,,SUMDIAM,155.0,mm,0,BASELINE
S0184,T01,LDIAM,29.6,mm,56,TA1
S0184,T02,LDIAM,36.2,mm,56,TA1
S0184,T03,LDIAM,39.6,mm,56,TA1
S0184,,SUMDIAM,105.4,mm,56,TA1
S0184,T01,LDIAM,15.7,mm,112,TA2
S0184,T02,LDIAM,19.2,mm,112,TA2
S0184,T03,LDIAM,21.0,mm,112,TA2
S0184,,SUMDIAM,55.8,mm,112,TA2
S0184,T01,LDIAM,15.7,mm,168,TA3
S0184,T02,LDIAM,19.2,mm,168,TA3
S0184,T03,LDIAM,21.0,mm,168,TA3
S0184,,SUMDIAM,55.8,mm,168,TA3
S0184,T01,LDIAM,15.7,mm,224,TA4
S0184,T02,LDIAM,19.2,mm,224,TA4
S0184,T03,LDIAM,21.0,mm,224,TA4
S0184,,SUMDIAM,55.8,mm,224,TA4
S0184,T01,LDIAM,15.7,mm,280,TA5
S0184,T02,LDIAM,19.2,mm,280,TA5
S0184,T03,LDIAM,21.0,mm,280,TA5
S0184,,SUMDIAM,55.8,mm,280,TA5
S0184,T01,LDIAM,15.7,mm,336,TA6
S0184,T02,LDIAM,19.2,mm,336,TA6
S0184,T03,LDIAM,21.0,mm,336,TA6
S0184,,SUMDIAM,55.8,mm,336,TA6
S0184,T01,LDIAM,21.0,mm,392,TA7
S0184,T02,LDIAM,25.7,mm,392,TA7
S0184,T03,LDIAM,28.1,mm,392,TA7
S0184,,SUMDIAM,74.7,mm,392,TA7
S0184,T01,LDIAM,21.0,mm,448,TA8
S0184,T02,LDIAM,25.7,mm,448,TA8
S0184,T03,LDIAM,28.1,mm,448,TA8
S0184,,SUMDIAM,74.7,mm,448,TA8
S0184,T01,LDIAM,21.0,mm,504,TA9
S0184,T02,LDIAM,25.7,mm,504,TA9
S0184,T03,LDIAM,28.1,mm,504,TA9
S0184,,SUMDIAM,74.7,mm,504,TA9
S0184,T01,LDIAM,21.0,mm,560,TA10
S0184,T02,LDIAM,25.7,mm,560,TA10
S0184,T03,LDIAM,28.1,mm,560,TA10
S0184,,SUMDIAM,74.7,mm,560,TA10
S0184,T01,LDIAM,21.0,mm,616,TA11
S0184,T02,LDIAM,25.7,mm,616,TA11
S0184,T03,LDIAM,28.1,mm,616,TA11
S0184,,SUMDIAM,74.7,mm,616,TA11
S0184,T01,LDIAM,21.0,mm,672,TA12
S0184,T02,LDIAM,25.7,mm,672,TA12
S0184,T03,LDIAM,28.1,mm,672,TA12
S0184,,SUMDIAM,74.7,mm,672,TA12
S0188,T01,LDIAM,24.7,mm,0,BASELINE
S0188,T02,LDIAM,16.6,mm,0,BASELINE
S0188,T03,LDIAM,15.1,mm,0,BASELINE
S0188,T04,LDIAM,13.2,mm,0,BASELINE
S0188,T05,LDIAM,34.9,mm,0,BASELINE
S0188,,SUMDIAM,104.5,mm,0,BASELINE
S0188,T01,LDIAM,30.9,mm,56,TA1
S0188,T02,LDIAM,20.8,mm,56,TA1
S0188,T03,LDIAM,18.9,mm,56,TA1
S0188,T04,LDIAM,16.5,mm,56,TA1
S0188,T05,LDIAM,43.6,mm,56,TA1
S0188,,SUMDIAM,130.6,mm,56,TA1
S0189,T01,LDIAM,21.7,mm,0,BASELINE
S0189,,SUMDIAM,21.7,mm,0,BASELINE
S0189,T01,LDIAM,21.6,mm,56,TA1
S0189,,SUMDIAM,21.6,mm,56,TA1
S0189,T01,LDIAM,27.6,mm,112,TA2
S0189,,SUMDIAM,27.6,mm,112,TA2
S0190,T01,LDIAM,57.1,mm,0,BASELINE
S0190,T02,LDIAM,59.2,mm,0,BASELINE
S0190,T03,LDIAM,29.0,mm,0,BASELINE
S0190,T04,LDIAM,19.5,mm,0,BASELINE
S0190,,SUMDIAM,164.8,mm,0,BASELINE
S0190,T01,LDIAM,71.4,mm,56,TA1
S0190,T02,LDIAM,74.0,mm,56,TA1
S0190,T03,LDIAM,36.2,mm,56,TA1
S0190,T04,LDIAM,24.4,mm,56,TA1
S0190,,SUMDIAM,206.0,mm,56,TA1
S0005,T01,LDIAM,56.1,mm,0,BASELINE
S0005,T02,LDIAM,37.2,mm,0,BASELINE
S0005,T03,LDIAM,12.7,mm,0,BASELINE
S0005,T04,LDIAM,22.3,mm,0,BASELINE
S0005,,SUMDIAM,128.3,mm,0,BASELINE
S0005,T01,LDIAM,44.6,mm,56,TA1
S0005,T02,LDIAM,29.6,mm,56,TA1
S0005,T03,LDIAM,10.1,mm,56,TA1
S0005,T04,LDIAM,17.7,mm,56,TA1
S0005,,SUMDIAM,102.0,mm,56,TA1
S0005,T01,LDIAM,33.1,mm,112,TA2
S0005,T02,LDIAM,21.9,mm,112,TA2
S0005,T03,LDIAM,7.5,mm,112,TA2
S0005,T04,LDIAM,13.2,mm,112,TA2
S0005,,SUMDIAM,75.7,mm,112,TA2
S0005,T01,LDIAM,33.1,mm,168,TA3
S0005,T02,LDIAM,21.9,mm,168,TA3
S0005,T03,LDIAM,7.5,mm,168,TA3
S0005,T04,LDIAM,13.2,mm,168,TA3
S0005,,SUMDIAM,75.7,mm,168,TA3
S0005,T01,LDIAM,33.1,mm,224,TA4
S0005,T02,LDIAM,21.9,mm,224,TA4
S0005,T03,LDIAM,7.5,mm,224,TA4
S0005,T04,LDIAM,13.2,mm,224,TA4
S0005,,SUMDIAM,75.7,mm,224,TA4
S0005,T01,LDIAM,33.1,mm,280,TA5
S0005,T02,LDIAM,21.9,mm,280,TA5
S0005,T03,LDIAM,7.5,mm,280,TA5
S0005,T04,LDIAM,13.2,mm,280,TA5
S0005,,SUMDIAM,75.7,mm,280,TA5
S0005,T01,LDIAM,33.1,mm,336,TA6
S0005,T02,LDIAM,21.9,mm,336,TA6
S0005,T03,LDIAM,7.5,mm,336,TA6
S0005,T04,LDIAM,13.2,mm,336,TA6
S0005,,SUMDIAM,75.7,mm,336,TA6
S0005,T01,LDIAM,33.1,mm,392,TA7
S0005,T02,LDIAM,21.9,mm,392,TA7
S0005,T03,LDIAM,7.5,mm,392,TA7
S0005,T04,LDIAM,13.2,mm,392,TA7
S0005,,SUMDIAM,75.7,mm,392,TA7
S0005,T01,LDIAM,33.1,mm,448,TA8
S0005,T02,LDIAM,21.9,mm,448,TA8
S0005,T03,LDIAM,7.5,mm,448,TA8
S0005,T04,LDIAM,13.2,mm,448,TA8
S0005,,SUMDIAM,75.7,mm,448,TA8
S0005,T01,LDIAM,33.1,mm,504,TA9
S0005,T02,LDIAM,21.9,mm,504,TA9
S0005,T03,LDIAM,7.5,mm,504,TA9
S0005,T04,LDIAM,13.2,mm,504,TA9
S0005,,SUMDIAM,75.7,mm,504,TA9
S0005,T01,LDIAM,33.1,mm,560,TA10
S0005,T02,LDIAM,21.9,mm,560,TA10
S0005,T03,LDIAM,7.5,mm,560,TA10
S0005,T04,LDIAM,13.2,mm,560,TA10
S0005,,SUMDIAM,75.7,mm,560,TA10
S0005,T01,LDIAM,33.1,mm,616,TA11
S0005,T02,LDIAM,21.9,mm,616,TA11
S0005,T03,LDIAM,7.5,mm,616,TA11
S0005,T04,LDIAM,13.2,mm,616,TA11
S0005,,SUMDIAM,75.7,mm,616,TA11
S0005,T01,LDIAM,33.1,mm,672,TA12
S0005,T02,LDIAM,21.9,mm,672,TA12
S0005,T03,LDIAM,7.5,mm,672,TA12
S0005,T04,LDIAM,13.2,mm,672,TA12
S0005,,SUMDIAM,75.7,mm,672,TA12
S0005,T01,LDIAM,33.1,mm,728,TA13
S0005,T02,LDIAM,21.9,mm,728,TA13
S0005,T03,LDIAM,7.5,mm,728,TA13
S0005,T04,LDIAM,13.2,mm,728,TA13
S0005,,SUMDIAM,75.7,mm,728,TA13
S0005,T01,LDIAM,33.1,mm,784,TA14
S0005,T02,LDIAM,21.9,mm,784,TA14
S0005,T03,LDIAM,7.5,mm,784,TA14
S0005,T04,LDIAM,13.2,mm,784,TA14
S0005,,SUMDIAM,75.7,mm,784,TA14
S0009,T01,LDIAM,56.0,mm,0,BASELINE
S0009,T02,LDIAM,13.1,mm,0,BASELINE
S0009,T03,LDIAM,32.4,mm,0,BASELINE
S0009,,SUMDIAM,101.5,mm,0,BASELINE
S0009,T01,LDIAM,40.4,mm,56,TA1
S0009,T02,LDIAM,9.5,mm,56,TA1
S0009,T03,LDIAM,23.4,mm,56,TA1
S0009,,SUMDIAM,73.3,mm,56,TA1
S0009,T01,LDIAM,24.8,mm,112,TA2
S0009,T02,LDIAM,5.8,mm,112,TA2
S0009,T03,LDIAM,14.4,mm,112,TA2
S0009,,SUMDIAM,45.0,mm,112,TA2
S0009,T01,LDIAM,24.8,mm,168,TA3
S0009,T02,LDIAM,5.8,mm,168,TA3
S0009,T03,LDIAM,14.4,mm,168,TA3
S0009,,SUMDIAM,45.0,mm,168,TA3
S0009,T01,LDIAM,24.8,mm,224,TA4
S0009,T02,LDIAM,5.8,mm,224,TA4
S0009,T03,LDIAM,14.4,mm,224,TA4
S0009,,SUMDIAM,45.0,mm,224,TA4
S0009,T01,LDIAM,24.8,mm,280,TA5
S0009,T02,LDIAM,5.8,mm,280,TA5
S0009,T03,LDIAM,14.4,mm,280,TA5
S0009,,SUMDIAM,45.0,mm,280,TA5
S0009,T01,LDIAM,24.8,mm,336,TA6
S0009,T02,LDIAM,5.8,mm,336,TA6
S0009,T03,LDIAM,14.4,mm,336,TA6
S0009,,SUMDIAM,45.0,mm,336,TA6
S0009,T01,LDIAM,24.8,mm,392,TA7
S0009,T02,LDIAM,5.8,mm,392,TA7
S0009,T03,LDIAM,14.4,mm,392,TA7
S0009,,SUMDIAM,45.0,mm,392,TA7
S0009,T01,LDIAM,24.8,mm,448,TA8
S0009,T02,LDIAM,5.8,mm,448,TA8
S0009,T03,LDIAM,14.4,mm,448,TA8
S0009,,SUMDIAM,45.0,mm,448,TA8
S0010,T01,LDIAM,47.2,mm,0,BASELINE
S0010,T02,LDIAM,22.7,mm,0,BASELINE
S0010,T03,LDIAM,22.9,mm,0,BASELINE
S0010,T04,LDIAM,23.5,mm,0,BASELINE
S0010,,SUMDIAM,116.3,mm,0,BASELINE
S0010,T01,LDIAM,45.2,mm,56,TA1
S0010,T02,LDIAM,21.7,mm,56,TA1
S0010,T03,LDIAM,21.9,mm,56,TA1
S0010,T04,LDIAM,22.5,mm,56,TA1
S0010,,SUMDIAM,111.3,mm,56,TA1
S0010,T01,LDIAM,43.1,mm,112,TA2
S0010,T02,LDIAM,20.7,mm,112,TA2
S0010,T03,LDIAM,20.9,mm,112,TA2
S0010,T04,LDIAM,21.5,mm,112,TA2
S0010,,SUMDIAM,106.3,mm,112,TA2
S0010,T01,LDIAM,43.1,mm,168,TA3
S0010,T02,LDIAM,20.7,mm,168,TA3
S0010,T03,LDIAM,20.9,mm,168,TA3
S0010,T04,LDIAM,21.5,mm,168,TA3
S0010,,SUMDIAM,106.3,mm,168,TA3
S0010,T01,LDIAM,43.1,mm,224,TA4
S0010,T02,LDIAM,20.7,mm,224,TA4
S0010,T03,LDIAM,20.9,mm,224,TA4
S0010,T04,LDIAM,21.5,mm,224,TA4
S0010,,SUMDIAM,106.3,mm,224,TA4
S0010,T01,LDIAM,54.1,mm,280,TA5
S0010,T02,LDIAM,26.0,mm,280,TA5
S0010,T03,LDIAM,26.3,mm,280,TA5
S0010,T04,LDIAM,27.0,mm,280,TA5
S0010,,SUMDIAM,133.4,mm,280,TA5
S0011,T01,LDIAM,54.6,mm,0,BASELINE
S0011,T02,LDIAM,40.9,mm,0,BASELINE
S0011,T03,LDIAM,46.4,mm,0,BASELINE
S0011,T04,LDIAM,17.2,mm,0,BASELINE
S0011,T05,LDIAM,24.7,mm,0,BASELINE
S0011,,SUMDIAM,183.8,mm,0,BASELINE
S0011,T01,LDIAM,39.4,mm,56,TA1
S0011,T02,LDIAM,29.5,mm,56,TA1
S0011,T03,LDIAM,33.5,mm,56,TA1
S0011,T04,LDIAM,12.4,mm,56,TA1
S0011,T05,LDIAM,17.8,mm,56,TA1
S0011,,SUMDIAM,132.8,mm,56,TA1
S0011,T01,LDIAM,24.3,mm,112,TA2
S0011,T02,LDIAM,18.2,mm,112,TA2
S0011,T03,LDIAM,20.6,mm,112,TA2
S0011,T04,LDIAM,7.6,mm,112,TA2
S0011,T05,LDIAM,11.0,mm,112,TA2
S0011,,SUMDIAM,81.7,mm,112,TA2
S0011,T01,LDIAM,24.3,mm,168,TA3
S0011,T02,LDIAM,18.2,mm,168,TA3
S0011,T03,LDIAM,20.6,mm,168,TA3
S0011,T04,LDIAM,7.6,mm,168,TA3
S0011,T05,LDIAM,11.0,mm,168,TA3
S0011,,SUMDIAM,81.7,mm,168,TA3
S0018,T01,LDIAM,20.5,mm,0,BASELINE
S0018,T02,LDIAM,24.3,mm,0,BASELINE
S0018,T03,LDIAM,46.4,mm,0,BASELINE
S0018,T04,LDIAM,21.6,mm,0,BASELINE
S0018,T05,LDIAM,36.2,mm,0,BASELINE
S0018,,SUMDIAM,149.0,mm,0,BASELINE
S0018,T01,LDIAM,17.9,mm,56,TA1
S0018,T02,LDIAM,21.2,mm,56,TA1
S0018,T03,LDIAM,40.5,mm,56,TA1
S0018,T04,LDIAM,18.9,mm,56,TA1
S0018,T05,LDIAM,31.6,mm,56,TA1
S0018,,SUMDIAM,130.1,mm,56,TA1
S0018,T01,LDIAM,15.3,mm,112,TA2
S0018,T02,LDIAM,18.1,mm,112,TA2
S0018,T03,LDIAM,34.7,mm,112,TA2
S0018,T04,LDIAM,16.1,mm,112,TA2
S0018,T05,LDIAM,27.0,mm,112,TA2
S0018,,SUMDIAM,111.3,mm,112,TA2
S0018,T01,LDIAM,15.3,mm,168,TA3
S0018,T02,LDIAM,18.1,mm,168,TA3
S0018,T03,LDIAM,34.7,mm,168,TA3
S0018,T04,LDIAM,16.1,mm,168,TA3
S0018,T05,LDIAM,27.0,mm,168,TA3
S0018,,SUMDIAM,111.3,mm,168,TA3
S0018,T01,LDIAM,15.3,mm,224,TA4
S0018,T02,LDIAM,18.1,mm,224,TA4
S0018,T03,LDIAM,34.7,mm,224,TA4
S0018,T04,LDIAM,16.1,mm,224,TA4
S0018,T05,LDIAM,27.0,mm,224,TA4
S0018,,SUMDIAM,111.3,mm,224,TA4
S0018,T01,LDIAM,15.3,mm,280,TA5
S0018,T02,LDIAM,18.1,mm,280,TA5
S0018,T03,LDIAM,34.7,mm,280,TA5
S0018,T04,LDIAM,16.1,mm,280,TA5
S0018,T05,LDIAM,27.0,mm,280,TA5
S0018,,SUMDIAM,111.3,mm,280,TA5
S0018,T01,LDIAM,15.3,mm,336,TA6
S0018,T02,LDIAM,18.1,mm,336,TA6
S0018,T03,LDIAM,34.7,mm,336,TA6
S0018,T04,LDIAM,16.1,mm,336,TA6
S0018,T05,LDIAM,27.0,mm,336,TA6
S0018,,SUMDIAM,111.3,mm,336,TA6
S0021,T01,LDIAM,22.2,mm,0,BASELINE
S0021,,SUMDIAM,22.2,mm,0,BASELINE
S0021,T01,LDIAM,11.9,mm,56,TA1
S0021,,SUMDIAM,11.9,mm,56,TA1
S0021,T01,LDIAM,17.9,mm,112,TA2
S0021,,SUMDIAM,17.9,mm,112,TA2
S0024,T01,LDIAM,12.4,mm,0,BASELINE
S0024,T02,LDIAM,14.6,mm,0,BASELINE
S0024,T03,LDIAM,25.6,mm,0,BASELINE
S0024,,SUMDIAM,52.6,mm,0,BASELINE
S0024,T01,LDIAM,11.1,mm,56,TA1
S0024,T02,LDIAM,13.1,mm,56,TA1
S0024,T03,LDIAM,23.0,mm,56,TA1
S0024,,SUMDIAM,47.3,mm,56,TA1
S0024,T01,LDIAM,9.9,mm,112,TA2
S0024,T02,LDIAM,11.7,mm,112,TA2
S0024,T03,LDIAM,20.4,mm,112,TA2
S0024,,SUMDIAM,42.0,mm,112,TA2
S0024,T01,LDIAM,9.9,mm,168,TA3
S0024,T02,LDIAM,11.7,mm,168,TA3
S0024,T03,LDIAM,20.4,mm,168,TA3
S0024,,SUMDIAM,42.0,mm,168,TA3
S0024,T01,LDIAM,9.9,mm,224,TA4
S0024,T02,LDIAM,11.7,mm,224,TA4
S0024,T03,LDIAM,20.4,mm,224,TA4
S0024,,SUMDIAM,42.0,mm,224,TA4
S0024,T01,LDIAM,9.9,mm,280,TA5
S0024,T02,LDIAM,11.7,mm,280,TA5
S0024,T03,LDIAM,20.4,mm,280,TA5
S0024,,SUMDIAM,42.0,mm,280,TA5
S0024,T01,LDIAM,9.9,mm,336,TA6
S0024,T02,LDIAM,11.7,mm,336,TA6
S0024,T03,LDIAM,20.4,mm,336,TA6
S0024,,SUMDIAM,42.0,mm,336,TA6
S0025,T01,LDIAM,35.2,mm,0,BASELINE
S0025,T02,LDIAM,44.4,mm,0,BASELINE
S0025,,SUMDIAM,79.6,mm,0,BASELINE
S0025,T01,LDIAM,20.8,mm,56,TA1
S0025,T02,LDIAM,26.2,mm,56,TA1
S0025,,SUMDIAM,47.0,mm,56,TA1
S0025,T01,LDIAM,6.4,mm,112,TA2
S0025,T02,LDIAM,8.0,mm,112,TA2
S0025,,SUMDIAM,14.4,mm,112,TA2
S0026,T01,LDIAM,32.7,mm,0,BASELINE
S0026,T02,LDIAM,49.2,mm,0,BASELINE
S0026,T03,LDIAM,21.8,mm,0,BASELINE
S0026,T04,LDIAM,58.4,mm,0,BASELINE
S0026,T05,LDIAM,49.1,mm,0,BASELINE
S0026,,SUMDIAM,211.2,mm,0,BASELINE
S0026,T01,LDIAM,40.9,mm,56,TA1
S0026,T02,LDIAM,61.5,mm,56,TA1
S0026,T03,LDIAM,27.2,mm,56,TA1
S0026,T04,LDIAM,73.0,mm,56,TA1
S0026,T05,LDIAM,61.4,mm,56,TA1
S0026,,SUMDIAM,264.0,mm,56,TA1
S0034,T01,LDIAM,31.8,mm,0,BASELINE
S0034,T02,LDIAM,15.3,mm,0,BASELINE
S0034,T03,LDIAM,57.6,mm,0,BASELINE
S0034,T04,LDIAM,19.0,mm,0,BASELINE
S0034,,SUMDIAM,123.7,mm,0,BASELINE
S0034,T01,LDIAM,21.8,mm,56,TA1
S0034,T02,LDIAM,10.5,mm,56,TA1
S0034,T03,LDIAM,39.6,mm,56,TA1
S0034,T04,LDIAM,13.1,mm,56,TA1
S0034,,SUMDIAM,85.0,mm,56,TA1
S0034,T01,LDIAM,27.8,mm,112,TA2
S0034,T02,LDIAM,13.4,mm,112,TA2
S0034,T03,LDIAM,50.4,mm,112,TA2
S0034,T04,LDIAM,16.6,mm,112,TA2
S0034,,SUMDIAM,108.2,mm,112,TA2
S0035,T01,LDIAM,54.5,mm,0,BASELINE
S0035,T02,LDIAM,49.0,mm,0,BASELINE
S0035,T03,LDIAM,29.8,mm,0,BASELINE
S0035,T04,LDIAM,33.1,mm,0,BASELINE
S0035,,SUMDIAM,166.4,mm,0,BASELINE
S0035,T01,LDIAM,49.0,mm,56,TA1
S0035,T02,LDIAM,44.1,mm,56,TA1
S0035,T03,LDIAM,26.8,mm,56,TA1
S0035,T04,LDIAM,29.8,mm,56,TA1
S0035,,SUMDIAM,149.7,mm,56,TA1
S0035,T01,LDIAM,43.6,mm,112,TA2
S0035,T02,LDIAM,39.2,mm,112,TA2
S0035,T03,LDIAM,23.8,mm,112,TA2
S0035,T04,LDIAM,26.5,mm,112,TA2
S0035,,SUMDIAM,133.0,mm,112,TA2
S0035,T01,LDIAM,43.6,mm,168,TA3
S0035,T02,LDIAM,39.2,mm,168,TA3
S0035,T03,LDIAM,23.8,mm,168,TA3
S0035,T04,LDIAM,26.5,mm,168,TA3
S0035,,SUMDIAM,133.0,mm,168,TA3
S0035,T01,LDIAM,43.6,mm,224,TA4
S0035,T02,LDIAM,39.2,mm,224,TA4
S0035,T03,LDIAM,23.8,mm,224,TA4
S0035,T04,LDIAM,26.5,mm,224,TA4
S0035,,SUMDIAM,133.0,mm,224,TA4
S0035,T01,LDIAM,43.6,mm,280,TA5
S0035,T02,LDIAM,39.2,mm,280,TA5
S0035,T03,LDIAM,23.8,mm,280,TA5
S0035,T04,LDIAM,26.5,mm,280,TA5
S0035,,SUMDIAM,133.0,mm,280,TA5
S0035,T01,LDIAM,43.6,mm,336,TA6
S0035,T02,LDIAM,39.2,mm,336,TA6
S0035,T03,LDIAM,23.8,mm,336,TA6
S0035,T04,LDIAM,26.5,mm,336,TA6
S0035,,SUMDIAM,133.0,mm,336,TA6
S0035,T01,LDIAM,55.0,mm,392,TA7
S0035,T02,LDIAM,49.4,mm,392,TA7
S0035,T03,LDIAM,30.1,mm,392,TA7
S0035,T04,LDIAM,33.4,mm,392,TA7
S0035,,SUMDIAM,167.9,mm,392,TA7
S0042,T01,LDIAM,23.0,mm,0,BASELINE
S0042,T02,LDIAM,29.5,mm,0,BASELINE
S0042,T03,LDIAM,40.4,mm,0,BASELINE
S0042,,SUMDIAM,92.9,mm,0,BASELINE
S0042,T01,LDIAM,28.8,mm,56,TA1
S0042,T02,LDIAM,36.9,mm,56,TA1
S0042,T03,LDIAM,50.5,mm,56,TA1
S0042,,SUMDIAM,116.1,mm,56,TA1
S0046,T01,LDIAM,52.9,mm,0,BASELINE
S0046,T02,LDIAM,34.3,mm,0,BASELINE
S0046,,SUMDIAM,87.2,mm,0,BASELINE
S0046,T01,LDIAM,42.8,mm,56,TA1
S0046,T02,LDIAM,27.8,mm,56,TA1
S0046,,SUMDIAM,70.6,mm,56,TA1
S0046,T01,LDIAM,32.7,mm,112,TA2
S0046,T02,LDIAM,21.2,mm,112,TA2
S0046,,SUMDIAM,54.0,mm,112,TA2
S0046,T01,LDIAM,32.7,mm,168,TA3
S0046,T02,LDIAM,21.2,mm,168,TA3
S0046,,SUMDIAM,54.0,mm,168,TA3
S0046,T01,LDIAM,32.7,mm,224,TA4
S0046,T02,LDIAM,21.2,mm,224,TA4
S0046,,SUMDIAM,54.0,mm,224,TA4
S0046,T01,LDIAM,32.7,mm,280,TA5
S0046,T02,LDIAM,21.2,mm,280,TA5
S0046,,SUMDIAM,54.0,mm,280,TA5
S0047,T01,LDIAM,45.8,mm,0,BASELINE
S0047,T02,LDIAM,58.4,mm,0,BASELINE
S0047,,SUMDIAM,104.2,mm,0,BASELINE
S0047,T01,LDIAM,32.6,mm,56,TA1
S0047,T02,LDIAM,41.6,mm,56,TA1
S0047,,SUMDIAM,74.2,mm,56,TA1
S0047,T01,LDIAM,19.4,mm,112,TA2
S0047,T02,LDIAM,24.8,mm,112,TA2
S0047,,SUMDIAM,44.2,mm,112,TA2
S0047,T01,LDIAM,19.4,mm,168,TA3
S0047,T02,LDIAM,24.8,mm,168,TA3
S0047,,SUMDIAM,44.2,mm,168,TA3
S0047,T01,LDIAM,19.4,mm,224,TA4
S0047,T02,LDIAM,24.8,mm,224,TA4
S0047,,SUMDIAM,44.2,mm,224,TA4
S0047,T01,LDIAM,19.4,mm,280,TA5
S0047,T02,LDIAM,24.8,mm,280,TA5
S0047,,SUMDIAM,44.2,mm,280,TA5
S0047,T01,LDIAM,19.4,mm,336,TA6
S0047,T02,LDIAM,24.8,mm,336,TA6
S0047,,SUMDIAM,44.2,mm,336,TA6
S0047,T01,LDIAM,19.4,mm,392,TA7
S0047,T02,LDIAM,24.8,mm,392,TA7
S0047,,SUMDIAM,44.2,mm,392,TA7
S0047,T01,LDIAM,19.4,mm,448,TA8
S0047,T02,LDIAM,24.8,mm,448,TA8
S0047,,SUMDIAM,44.2,mm,448,TA8
S0047,T01,LDIAM,19.4,mm,504,TA9
S0047,T02,LDIAM,24.8,mm,504,TA9
S0047,,SUMDIAM,44.2,mm,504,TA9
S0047,T01,LDIAM,25.6,mm,560,TA10
S0047,T02,LDIAM,32.6,mm,560,TA10
S0047,,SUMDIAM,58.3,mm,560,TA10
S0047,T01,LDIAM,25.6,mm,616,TA11
S0047,T02,LDIAM,32.6,mm,616,TA11
S0047,,SUMDIAM,58.3,mm,616,TA11
S0053,T01,LDIAM,30.0,mm,0,BASELINE
S0053,T02,LDIAM,55.7,mm,0,BASELINE
S0053,T03,LDIAM,23.0,mm,0,BASELINE
S0053,T04,LDIAM,17.4,mm,0,BASELINE
S0053,,SUMDIAM,126.1,mm,0,BASELINE
S0053,T01,LDIAM,22.1,mm,56,TA1
S0053,T02,LDIAM,41.0,mm,56,TA1
S0053,T03,LDIAM,16.9,mm,56,TA1
S0053,T04,LDIAM,12.8,mm,56,TA1
S0053,,SUMDIAM,92.8,mm,56,TA1
S0053,T01,LDIAM,14.1,mm,112,TA2
S0053,T02,LDIAM,26.2,mm,112,TA2
S0053,T03,LDIAM,10.8,mm,112,TA2
S0053,T04,LDIAM,8.2,mm,112,TA2
S0053,,SUMDIAM,59.4,mm,112,TA2
S0053,T01,LDIAM,14.1,mm,168,TA3
S0053,T02,LDIAM,26.2,mm,168,TA3
S0053,T03,LDIAM,10.8,mm,168,TA3
S0053,T04,LDIAM,8.2,mm,168,TA3
S0053,,SUMDIAM,59.4,mm,168,TA3
S0056,T01,LDIAM,28.2,mm,0,BASELINE
S0056,T02,LDIAM,43.5,mm,0,BASELINE
S0056,,SUMDIAM,71.7,mm,0,BASELINE
S0056,T01,LDIAM,20.2,mm,56,TA1
S0056,T02,LDIAM,31.2,mm,56,TA1
S0056,,SUMDIAM,51.5,mm,56,TA1
S0056,T01,LDIAM,12.3,mm,112,TA2
S0056,T02,LDIAM,19.0,mm,112,TA2
S0056,,SUMDIAM,31.3,mm,112,TA2
S0056,T01,LDIAM,12.3,mm,168,TA3
S0056,T02,LDIAM,19.0,mm,168,TA3
S0056,,SUMDIAM,31.3,mm,168,TA3
S0058,T01,LDIAM,39.5,mm,0,BASELINE
S0058,T02,LDIAM,16.0,mm,0,BASELINE
S0058,T03,LDIAM,18.5,mm,0,BASELINE
S0058,T04,LDIAM,34.3,mm,0,BASELINE
S0058,,SUMDIAM,108.3,mm,0,BASELINE
S0058,T01,LDIAM,42.0,mm,56,TA1
S0058,T02,LDIAM,17.0,mm,56,TA1
S0058,T03,LDIAM,19.7,mm,56,TA1
S0058,T04,LDIAM,36.5,mm,56,TA1
S0058,,SUMDIAM,115.3,mm,56,TA1
S0058,T01,LDIAM,44.6,mm,112,TA2
S0058,T02,LDIAM,18.1,mm,112,TA2
S0058,T03,LDIAM,20.9,mm,112,TA2
S0058,T04,LDIAM,38.7,mm,112,TA2
S0058,,SUMDIAM,122.2,mm,112,TA2
S0058,T01,LDIAM,44.6,mm,168,TA3
S0058,T02,LDIAM,18.1,mm,168,TA3
S0058,T03,LDIAM,20.9,mm,168,TA3
S0058,T04,LDIAM,38.7,mm,168,TA3
S0058,,SUMDIAM,122.2,mm,168,TA3
S0058,T01,LDIAM,49.4,mm,224,TA4
S0058,T02,LDIAM,20.0,mm,224,TA4
S0058,T03,LDIAM,23.1,mm,224,TA4
S0058,T04,LDIAM,42.9,mm,224,TA4
S0058,,SUMDIAM,135.4,mm,224,TA4
S0059,T01,LDIAM,55.2,mm,0,BASELINE
S0059,T02,LDIAM,39.5,mm,0,BASELINE
S0059,T03,LDIAM,13.7,mm,0,BASELINE
S0059,T04,LDIAM,48.8,mm,0,BASELINE
S0059,T05,LDIAM,17.6,mm,0,BASELINE
S0059,,SUMDIAM,174.8,mm,0,BASELINE
S0059,T01,LDIAM,49.6,mm,56,TA1
S0059,T02,LDIAM,35.5,mm,56,TA1
S0059,T03,LDIAM,12.3,mm,56,TA1
S0059,T04,LDIAM,43.8,mm,56,TA1
S0059,T05,LDIAM,15.8,mm,56,TA1
S0059,,SUMDIAM,157.0,mm,56,TA1
S0059,T01,LDIAM,43.9,mm,112,TA2
S0059,T02,LDIAM,31.4,mm,112,TA2
S0059,T03,LDIAM,10.9,mm,112,TA2
S0059,T04,LDIAM,38.8,mm,112,TA2
S0059,T05,LDIAM,14.0,mm,112,TA2
S0059,,SUMDIAM,139.1,mm,112,TA2
S0059,T01,LDIAM,43.9,mm,168,TA3
S0059,T02,LDIAM,31.4,mm,168,TA3
S0059,T03,LDIAM,10.9,mm,168,TA3
S0059,T04,LDIAM,38.8,mm,168,TA3
S0059,T05,LDIAM,14.0,mm,168,TA3
S0059,,SUMDIAM,139.1,mm,168,TA3
S0059,T01,LDIAM,43.9,mm,224,TA4
S0059,T02,LDIAM,31.4,mm,224,TA4
S0059,T03,LDIAM,10.9,mm,224,TA4
S0059,T04,LDIAM,38.8,mm,224,TA4
S0059,T05,LDIAM,14.0,mm,224,TA4
S0059,,SUMDIAM,139.1,mm,224,TA4
S0059,T01,LDIAM,43.9,mm,280,TA5
S0059,T02,LDIAM,31.4,mm,280,TA5
S0059,T03,LDIAM,10.9,mm,280,TA5
S0059,T04,LDIAM,38.8,mm,280,TA5
S0059,T05,LDIAM,14.0,mm,280,TA5
S0059,,SUMDIAM,139.1,mm,280,TA5
S0059,T01,LDIAM,43.9,mm,336,TA6
S0059,T02,LDIAM,31.4,mm,336,TA6
S0059,T03,LDIAM,10.9,mm,336,TA6
S0059,T04,LDIAM,38.8,mm,336,TA6
S0059,T05,LDIAM,14.0,mm,336,TA6
S0059,,SUMDIAM,139.1,mm,336,TA6
S0059,T01,LDIAM,43.9,mm,392,TA7
S0059,T02,LDIAM,31.4,mm,392,TA7
S0059,T03,LDIAM,10.9,mm,392,TA7
S0059,T04,LDIAM,38.8,mm,392,TA7
S0059,T05,LDIAM,14.0,mm,392,TA7
S0059,,SUMDIAM,139.1,mm,392,TA7
S0059,T01,LDIAM,43.9,mm,448,TA8
S0059,T02,LDIAM,31.4,mm,448,TA8
S0059,T03,LDIAM,10.9,mm,448,TA8
S0059,T04,LDIAM,38.8,mm,448,TA8
S0059,T05,LDIAM,14.0,mm,448,TA8
S0059,,SUMDIAM,139.1,mm,448,TA8
S0059,T01,LDIAM,43.9,mm,504,TA9
S0059,T02,LDIAM,31.4,mm,504,TA9
S0059,T03,LDIAM,10.9,mm,504,TA9
S0059,T04,LDIAM,38.8,mm,504,TA9
S0059,T05,LDIAM,14.0,mm,504,TA9
S0059,,SUMDIAM,139.1,mm,504,TA9
S0059,T01,LDIAM,43.9,mm,560,TA10
S0059,T02,LDIAM,31.4,mm,560,TA10
S0059,T03,LDIAM,10.9,mm,560,TA10
S0059,T04,LDIAM,38.8,mm,560,TA10
S0059,T05,LDIAM,14.0,mm,560,TA10
S0059,,SUMDIAM,139.1,mm,560,TA10
S0059,T01,LDIAM,43.9,mm,616,TA11
S0059,T02,LDIAM,31.4,mm,616,TA11
S0059,T03,LDIAM,10.9,mm,616,TA11
S0059,T04,LDIAM,38.8,mm,616,TA11
S0059,T05,LDIAM,14.0,mm,616,TA11
S0059,,SUMDIAM,139.1,mm,616,TA11
S0059,T01,LDIAM,43.9,mm,672,TA12
S0059,T02,LDIAM,31.4,mm,672,TA12
S0059,T03,LDIAM,10.9,mm,672,TA12
S0059,T04,LDIAM,38.8,mm,672,TA12
S0059,T05,LDIAM,14.0,mm,672,TA12
S0059,,SUMDIAM,139.1,mm,672,TA12
S0060,T01,LDIAM,10.5,mm,0,BASELINE
S0060,,SUMDIAM,10.5,mm,0,BASELINE
S0060,T01,LDIAM,6.5,mm,56,TA1
S0060,,SUMDIAM,6.5,mm,56,TA1
S0060,T01,LDIAM,2.6,mm,112,TA2
S0060,,SUMDIAM,2.6,mm,112,TA2
S0060,T01,LDIAM,2.6,mm,168,TA3
S0060,,SUMDIAM,2.6,mm,168,TA3
S0061,T01,LDIAM,51.8,mm,0,BASELINE
S0061,T02,LDIAM,42.3,mm,0,BASELINE
S0061,,SUMDIAM,94.1,mm,0,BASELINE
S0061,T01,LDIAM,36.8,mm,56,TA1
S0061,T02,LDIAM,30.0,mm,56,TA1
S0061,,SUMDIAM,66.8,mm,56,TA1
S0062,T01,LDIAM,35.3,mm,0,BASELINE
S0062,,SUMDIAM,35.3,mm,0,BASELINE
S0062,T01,LDIAM,33.7,mm,56,TA1
S0062,,SUMDIAM,33.7,mm,56,TA1
S0062,T01,LDIAM,32.2,mm,112,TA2
S0062,,SUMDIAM,32.2,mm,112,TA2
S0063,T01,LDIAM,34.1,mm,0,BASELINE
S0063,,SUMDIAM,34.1,mm,0,BASELINE
S0063,T01,LDIAM,32.7,mm,56,TA1
S0063,,SUMDIAM,32.7,mm,56,TA1
S0063,T01,LDIAM,31.3,mm,112,TA2
S0063,,SUMDIAM,31.3,mm,112,TA2
S0063,T01,LDIAM,39.3,mm,168,TA3
S0063,,SUMDIAM,39.3,mm,168,TA3
S0068,T01,LDIAM,42.0,mm,0,BASELINE
S0068,T02,LDIAM,15.7,mm,0,BASELINE
S0068,T03,LDIAM,29.5,mm,0,BASELINE
S0068,,SUMDIAM,87.2,mm,0,BASELINE
S0068,T01,LDIAM,40.5,mm,56,TA1
S0068,T02,LDIAM,15.1,mm,56,TA1
S0068,T03,LDIAM,28.4,mm,56,TA1
S0068,,SUMDIAM,84.1,mm,56,TA1
S0068,T01,LDIAM,39.0,mm,112,TA2
S0068,T02,LDIAM,14.6,mm,112,TA2
S0068,T03,LDIAM,27.4,mm,112,TA2
S0068,,SUMDIAM,80.9,mm,112,TA2
S0068,T01,LDIAM,39.0,mm,168,TA3
S0068,T02,LDIAM,14.6,mm,168,TA3
S0068,T03,LDIAM,27.4,mm,168,TA3
S0068,,SUMDIAM,80.9,mm,168,TA3
S0068,T01,LDIAM,39.0,mm,224,TA4
S0068,T02,LDIAM,14.6,mm,224,TA4
S0068,T03,LDIAM,27.4,mm,224,TA4
S0068,,SUMDIAM,80.9,mm,224,TA4
S0071,T01,LDIAM,16.2,mm,0,BASELINE
S0071,T02,LDIAM,14.9,mm,0,BASELINE
S0071,,SUMDIAM,31.1,mm,0,BASELINE
S0071,T01,LDIAM,13.0,mm,56,TA1
S0071,T02,LDIAM,12.0,mm,56,TA1
S0071,,SUMDIAM,25.0,mm,56,TA1
S0071,T01,LDIAM,9.8,mm,112,TA2
S0071,T02,LDIAM,9.1,mm,112,TA2
S0071,,SUMDIAM,18.9,mm,112,TA2
S0071,T01,LDIAM,9.8,mm,168,TA3
S0071,T02,LDIAM,9.1,mm,168,TA3
S0071,,SUMDIAM,18.9,mm,168,TA3
S0071,T01,LDIAM,9.8,mm,224,TA4
S0071,T02,LDIAM,9.1,mm,224,TA4
S0071,,SUMDIAM,18.9,mm,224,TA4
S0071,T01,LDIAM,9.8,mm,280,TA5
S0071,T02,LDIAM,9.1,mm,280,TA5
S0071,,SUMDIAM,18.9,mm,280,TA5
S0071,T01,LDIAM,9.8,mm,336,TA6
S0071,T02,LDIAM,9.1,mm,336,TA6
S0071,,SUMDIAM,18.9,mm,336,TA6
S0071,T01,LDIAM,9.8,mm,392,TA7
S0071,T02,LDIAM,9.1,mm,392,TA7
S0071,,SUMDIAM,18.9,mm,392,TA7
S0071,T01,LDIAM,9.8,mm,448,TA8
S0071,T02,LDIAM,9.1,mm,448,TA8
S0071,,SUMDIAM,18.9,mm,448,TA8
S0071,T01,LDIAM,9.8,mm,504,TA9
S0071,T02,LDIAM,9.1,mm,504,TA9
S0071,,SUMDIAM,18.9,mm,504,TA9
S0071,T01,LDIAM,9.8,mm,560,TA10
S0071,T02,LDIAM,9.1,mm,560,TA10
S0071,,SUMDIAM,18.9,mm,560,TA10
S0071,T01,LDIAM,9.8,mm,616,TA11
S0071,T02,LDIAM,9.1,mm,616,TA11
S0071,,SUMDIAM,18.9,mm,616,TA11
S0083,T01,LDIAM,14.0,mm,0,BASELINE
S0083,T02,LDIAM,54.2,mm,0,BASELINE
S0083,T03,LDIAM,34.2,mm,0,BASELINE
S0083,T04,LDIAM,51.6,mm,0,BASELINE
S0083,,SUMDIAM,154.0,mm,0,BASELINE
S0083,T01,LDIAM,11.6,mm,56,TA1
S0083,T02,LDIAM,44.8,mm,56,TA1
S0083,T03,LDIAM,28.3,mm,56,TA1
S0083,T04,LDIAM,42.6,mm,56,TA1
S0083,,SUMDIAM,127.2,mm,56,TA1
S0086,T01,LDIAM,22.0,mm,0,BASELINE
S0086,T02,LDIAM,42.8,mm,0,BASELINE
S0086,T03,LDIAM,19.5,mm,0,BASELINE
S0086,,SUMDIAM,84.3,mm,0,BASELINE
S0086,T01,LDIAM,15.8,mm,56,TA1
S0086,T02,LDIAM,30.6,mm,56,TA1
S0086,T03,LDIAM,14.0,mm,56,TA1
S0086,,SUMDIAM,60.4,mm,56,TA1
S0086,T01,LDIAM,20.0,mm,112,TA2
S0086,T02,LDIAM,38.9,mm,112,TA2
S0086,T03,LDIAM,17.7,mm,112,TA2
S0086,,SUMDIAM,76.7,mm,112,TA2
S0094,T01,LDIAM,11.1,mm,0,BASELINE
S0094,T02,LDIAM,33.1,mm,0,BASELINE
S0094,T03,LDIAM,18.2,mm,0,BASELINE
S0094,T04,LDIAM,15.7,mm,0,BASELINE
S0094,T05,LDIAM,52.0,mm,0,BASELINE
S0094,,SUMDIAM,130.1,mm,0,BASELINE
S0094,T01,LDIAM,9.0,mm,56,TA1
S0094,T02,LDIAM,26.8,mm,56,TA1
S0094,T03,LDIAM,14.7,mm,56,TA1
S0094,T04,LDIAM,12.7,mm,56,TA1
S0094,T05,LDIAM,42.1,mm,56,TA1
S0094,,SUMDIAM,105.4,mm,56,TA1
S0094,T01,LDIAM,6.9,mm,112,TA2
S0094,T02,LDIAM,20.5,mm,112,TA2
S0094,T03,LDIAM,11.3,mm,112,TA2
S0094,T04,LDIAM,9.7,mm,112,TA2
S0094,T05,LDIAM,32.3,mm,112,TA2
S0094,,SUMDIAM,80.7,mm,112,TA2
S0094,T01,LDIAM,6.9,mm,168,TA3
S0094,T02,LDIAM,20.5,mm,168,TA3
S0094,T03,LDIAM,11.3,mm,168,TA3
S0094,T04,LDIAM,9.7,mm,168,TA3
S0094,T05,LDIAM,32.3,mm,168,TA3
S0094,,SUMDIAM,80.7,mm,168,TA3
S0094,T01,LDIAM,6.9,mm,224,TA4
S0094,T02,LDIAM,20.5,mm,224,TA4
S0094,T03,LDIAM,11.3,mm,224,TA4
S0094,T04,LDIAM,9.7,mm,224,TA4
S0094,T05,LDIAM,32.3,mm,224,TA4
S0094,,SUMDIAM,80.7,mm,224,TA4
S0094,T01,LDIAM,6.9,mm,280,TA5
S0094,T02,LDIAM,20.5,mm,280,TA5
S0094,T03,LDIAM,11.3,mm,280,TA5
S0094,T04,LDIAM,9.7,mm,280,TA5
S0094,T05,LDIAM,32.3,mm,280,TA5
S0094,,SUMDIAM,80.7,mm,280,TA5
S0094,T01,LDIAM,6.9,mm,336,TA6
S0094,T02,LDIAM,20.5,mm,336,TA6
S0094,T03,LDIAM,11.3,mm,336,TA6
S0094,T04,LDIAM,9.7,mm,336,TA6
S0094,T05,LDIAM,32.3,mm,336,TA6
S0094,,SUMDIAM,80.7,mm,336,TA6
S0094,T01,LDIAM,6.9,mm,392,TA7
S0094,T02,LDIAM,20.5,mm,392,TA7
S0094,T03,LDIAM,11.3,mm,392,TA7
S0094,T04,LDIAM,9.7,mm,392,TA7
S0094,T05,LDIAM,32.3,mm,392,TA7
S0094,,SUMDIAM,80.7,mm,392,TA7
S0094,T01,LDIAM,6.9,mm,448,TA8
S0094,T02,LDIAM,20.5,mm,448,TA8
S0094,T03,LDIAM,11.3,mm,448,TA8
S0094,T04,LDIAM,9.7,mm,448,TA8
S0094,T05,LDIAM,32.3,mm,448,TA8
S0094,,SUMDIAM,80.7,mm,448,TA8
S0094,T01,LDIAM,6.9,mm,504,TA9
S0094,T02,LDIAM,20.5,mm,504,TA9
S0094,T03,LDIAM,11.3,mm,504,TA9
S0094,T04,LDIAM,9.7,mm,504,TA9
S0094,T05,LDIAM,32.3,mm,504,TA9
S0094,,SUMDIAM,80.7,mm,504,TA9
S0094,T01,LDIAM,6.9,mm,560,TA10
S0094,T02,LDIAM,20.5,mm,560,TA10
S0094,T03,LDIAM,11.3,mm,560,TA10
S0094,T04,LDIAM,9.7,mm,560,TA10
S0094,T05,LDIAM,32.3,mm,560,TA10
S0094,,SUMDIAM,80.7,mm,560,TA10
S0094,T01,LDIAM,6.9,mm,616,TA11
S0094,T02,LDIAM,20.5,mm,616,TA11
S0094,T03,LDIAM,11.3,mm,616,TA11
S0094,T04,LDIAM,9.7,mm,616,TA11
S0094,T05,LDIAM,32.3,mm,616,TA11
S0094,,SUMDIAM,80.7,mm,616,TA11
S0094,T01,LDIAM,6.9,mm,672,TA12
S0094,T02,LDIAM,20.5,mm,672,TA12
S0094,T03,LDIAM,11.3,mm,672,TA12
S0094,T04,LDIAM,9.7,mm,672,TA12
S0094,T05,LDIAM,32.3,mm,672,TA12
S0094,,SUMDIAM,80.7,mm,672,TA12
S0094,T01,LDIAM,6.9,mm,728,TA13
S0094,T02,LDIAM,20.5,mm,728,TA13
S0094,T03,LDIAM,11.3,mm,728,TA13
S0094,T04,LDIAM,9.7,mm,728,TA13
S0094,T05,LDIAM,32.3,mm,728,TA13
S0094,,SUMDIAM,80.7,mm,728,TA13
S0094,T01,LDIAM,6.9,mm,784,TA14
S0094,T02,LDIAM,20.5,mm,784,TA14
S0094,T03,LDIAM,11.3,mm,784,TA14
S0094,T04,LDIAM,9.7,mm,784,TA14
S0094,T05,LDIAM,32.3,mm,784,TA14
S0094,,SUMDIAM,80.7,mm,784,TA14
S0094,T01,LDIAM,6.9,mm,840,TA15
S0094,T02,LDIAM,20.5,mm,840,TA15
S0094,T03,LDIAM,11.3,mm,840,TA15
S0094,T04,LDIAM,9.7,mm,840,TA15
S0094,T05,LDIAM,32.3,mm,840,TA15
S0094,,SUMDIAM,80.7,mm,840,TA15
S0094,T01,LDIAM,6.9,mm,896,TA16
S0094,T02,LDIAM,20.5,mm,896,TA16
S0094,T03,LDIAM,11.3,mm,896,TA16
S0094,T04,LDIAM,9.7,mm,896,TA16
S0094,T05,LDIAM,32.3,mm,896,TA16
S0094,,SUMDIAM,80.7,mm,896,TA16
S0094,T01,LDIAM,6.9,mm,952,TA17
S0094,T02,LDIAM,20.5,mm,952,TA17
S0094,T03,LDIAM,11.3,mm,952,TA17
S0094,T04,LDIAM,9.7,mm,952,TA17
S0094,T05,LDIAM,32.3,mm,952,TA17
S0094,,SUMDIAM,80.7,mm,952,TA17
S0094,T01,LDIAM,6.9,mm,1008,TA18
S0094,T02,LDIAM,20.5,mm,1008,TA18
S0094,T03,LDIAM,11.3,mm,1008,TA18
S0094,T04,LDIAM,9.7,mm,1008,TA18
S0094,T05,LDIAM,32.3,mm,1008,TA18
S0094,,SUMDIAM,80.7,mm,1008,TA18
S0094,T01,LDIAM,6.9,mm,1064,TA19
S0094,T02,LDIAM,20.5,mm,1064,TA19
S0094,T03,LDIAM,11.3,mm,1064,TA19
S0094,T04,LDIAM,9.7,mm,1064,TA19
S0094,T05,LDIAM,32.3,mm,1064,TA19
S0094,,SUMDIAM,80.7,mm,1064,TA19
S0094,T01,LDIAM,6.9,mm,1120,TA20
S0094,T02,LDIAM,20.5,mm,1120,TA20
S0094,T03,LDIAM,11.3,mm,1120,TA20
S0094,T04,LDIAM,9.7,mm,1120,TA20
S0094,T05,LDIAM,32.3,mm,1120,TA20
S0094,,SUMDIAM,80.7,mm,1120,TA20
S0094,T01,LDIAM,6.9,mm,1176,TA21
S0094,T02,LDIAM,20.5,mm,1176,TA21
S0094,T03,LDIAM,11.3,mm,1176,TA21
S0094,T04,LDIAM,9.7,mm,1176,TA21
S0094,T05,LDIAM,32.3,mm,1176,TA21
S0094,,SUMDIAM,80.7,mm,1176,TA21
S0094,T01,LDIAM,6.9,mm,1232,TA22
S0094,T02,LDIAM,20.5,mm,1232,TA22
S0094,T03,LDIAM,11.3,mm,1232,TA22
S0094,T04,LDIAM,9.7,mm,1232,TA22
S0094,T05,LDIAM,32.3,mm,1232,TA22
S0094,,SUMDIAM,80.7,mm,1232,TA22
S0094,T01,LDIAM,6.9,mm,1288,TA23
S0094,T02,LDIAM,20.5,mm,1288,TA23
S0094,T03,LDIAM,11.3,mm,1288,TA23
S0094,T04,LDIAM,9.7,mm,1288,TA23
S0094,T05,LDIAM,32.3,mm,1288,TA23
S0094,,SUMDIAM,80.7,mm,1288,TA23
S0094,T01,LDIAM,6.9,mm,1344,TA24
S0094,T02,LDIAM,20.5,mm,1344,TA24
S0094,T03,LDIAM,11.3,mm,1344,TA24
S0094,T04,LDIAM,9.7,mm,1344,TA24
S0094,T05,LDIAM,32.3,mm,1344,TA24
S0094,,SUMDIAM,80.7,mm,1344,TA24
S0094,T01,LDIAM,6.9,mm,1400,TA25
S0094,T02,LDIAM,20.5,mm,1400,TA25
S0094,T03,LDIAM,11.3,mm,1400,TA25
S0094,T04,LDIAM,9.7,mm,1400,TA25
S0094,T05,LDIAM,32.3,mm,1400,TA25
S0094,,SUMDIAM,80.7,mm,1400,TA25
S0094,T01,LDIAM,6.9,mm,1456,TA26
S0094,T02,LDIAM,20.5,mm,1456,TA26
S0094,T03,LDIAM,11.3,mm,1456,TA26
S0094,T04,LDIAM,9.7,mm,1456,TA26
S0094,T05,LDIAM,32.3,mm,1456,TA26
S0094,,SUMDIAM,80.7,mm,1456,TA26
S0094,T01,LDIAM,6.9,mm,1512,TA27
S0094,T02,LDIAM,20.5,mm,1512,TA27
S0094,T03,LDIAM,11.3,mm,1512,TA27
S0094,T04,LDIAM,9.7,mm,1512,TA27
S0094,T05,LDIAM,32.3,mm,1512,TA27
S0094,,SUMDIAM,80.7,mm,1512,TA27
S0094,T01,LDIAM,6.9,mm,1568,TA28
S0094,T02,LDIAM,20.5,mm,1568,TA28
S0094,T03,LDIAM,11.3,mm,1568,TA28
S0094,T04,LDIAM,9.7,mm,1568,TA28
S0094,T05,LDIAM,32.3,mm,1568,TA28
S0094,,SUMDIAM,80.7,mm,1568,TA28
S0094,T01,LDIAM,6.9,mm,1624,TA29
S0094,T02,LDIAM,20.5,mm,1624,TA29
S0094,T03,LDIAM,11.3,mm,1624,TA29
S0094,T04,LDIAM,9.7,mm,1624,TA29
S0094,T05,LDIAM,32.3,mm,1624,TA29
S0094,,SUMDIAM,80.7,mm,1624,TA29
S0097,T01,LDIAM,59.5,mm,0,BASELINE
S0097,T02,LDIAM,45.6,mm,0,BASELINE
S0097,T03,LDIAM,11.0,mm,0,BASELINE
S0097,,SUMDIAM,116.1,mm,0,BASELINE
S0097,T01,LDIAM,49.1,mm,56,TA1
S0097,T02,LDIAM,37.6,mm,56,TA1
S0097,T03,LDIAM,9.1,mm,56,TA1
S0097,,SUMDIAM,95.8,mm,56,TA1
S0097,T01,LDIAM,38.7,mm,112,TA2
S0097,T02,LDIAM,29.6,mm,112,TA2
S0097,T03,LDIAM,7.2,mm,112,TA2
S0097,,SUMDIAM,75.5,mm,112,TA2
S0097,T01,LDIAM,38.7,mm,168,TA3
S0097,T02,LDIAM,29.6,mm,168,TA3
S0097,T03,LDIAM,7.2,mm,168,TA3
S0097,,SUMDIAM,75.5,mm,168,TA3
S0097,T01,LDIAM,38.7,mm,224,TA4
S0097,T02,LDIAM,29.6,mm,224,TA4
S0097,T03,LDIAM,7.2,mm,224,TA4
S0097,,SUMDIAM,75.5,mm,224,TA4
S0097,T01,LDIAM,38.7,mm,280,TA5
S0097,T02,LDIAM,29.6,mm,280,TA5
S0097,T03,LDIAM,7.2,mm,280,TA5
S0097,,SUMDIAM,75.5,mm,280,TA5
S0097,T01,LDIAM,38.7,mm,336,TA6
S0097,T02,LDIAM,29.6,mm,336,TA6
S0097,T03,LDIAM,7.2,mm,336,TA6
S0097,,SUMDIAM,75.5,mm,336,TA6
S0097,T01,LDIAM,38.7,mm,392,TA7
S0097,T02,LDIAM,29.6,mm,392,TA7
S0097,T03,LDIAM,7.2,mm,392,TA7
S0097,,SUMDIAM,75.5,mm,392,TA7
S0101,T01,LDIAM,52.6,mm,0,BASELINE
S0101,T02,LDIAM,54.1,mm,0,BASELINE
S0101,T03,LDIAM,48.0,mm,0,BASELINE
S0101,T04,LDIAM,58.4,mm,0,BASELINE
S0101,,SUMDIAM,213.1,mm,0,BASELINE
S0101,T01,LDIAM,65.8,mm,56,TA1
S0101,T02,LDIAM,67.6,mm,56,TA1
S0101,T03,LDIAM,60.0,mm,56,TA1
S0101,T04,LDIAM,73.0,mm,56,TA1
S0101,,SUMDIAM,266.4,mm,56,TA1
S0107,T01,LDIAM,31.6,mm,0,BASELINE
S0107,,SUMDIAM,31.6,mm,0,BASELINE
S0107,T01,LDIAM,18.1,mm,56,TA1
S0107,,SUMDIAM,18.1,mm,56,TA1
S0107,T01,LDIAM,24.1,mm,112,TA2
S0107,,SUMDIAM,24.1,mm,112,TA2
S0111,T01,LDIAM,44.2,mm,0,BASELINE
S0111,T02,LDIAM,16.7,mm,0,BASELINE
S0111,T03,LDIAM,45.7,mm,0,BASELINE
S0111,,SUMDIAM,106.6,mm,0,BASELINE
S0111,T01,LDIAM,29.9,mm,56,TA1
S0111,T02,LDIAM,11.3,mm,56,TA1
S0111,T03,LDIAM,30.9,mm,56,TA1
S0111,,SUMDIAM,72.0,mm,56,TA1
S0111,T01,LDIAM,38.0,mm,112,TA2
S0111,T02,LDIAM,14.4,mm,112,TA2
S0111,T03,LDIAM,39.3,mm,112,TA2
S0111,,SUMDIAM,91.7,mm,112,TA2
S0112,T01,LDIAM,58.1,mm,0,BASELINE
S0112,T02,LDIAM,56.9,mm,0,BASELINE
S0112,T03,LDIAM,46.0,mm,0,BASELINE
S0112,,SUMDIAM,161.0,mm,0,BASELINE
S0112,T01,LDIAM,31.6,mm,56,TA1
S0112,T02,LDIAM,30.9,mm,56,TA1
S0112,T03,LDIAM,25.0,mm,56,TA1
S0112,,SUMDIAM,87.5,mm,56,TA1
S0112,T01,LDIAM,5.0,mm,112,TA2
S0112,T02,LDIAM,4.9,mm,112,TA2
S0112,T03,LDIAM,4.0,mm,112,TA2
S0112,,SUMDIAM,14.0,mm,112,TA2
S0112,T01,LDIAM,5.0,mm,168,TA3
S0112,T02,LDIAM,4.9,mm,168,TA3
S0112,T03,LDIAM,4.0,mm,168,TA3
S0112,,SUMDIAM,14.0,mm,168,TA3
S0112,T01,LDIAM,5.0,mm,224,TA4
S0112,T02,LDIAM,4.9,mm,224,TA4
S0112,T03,LDIAM,4.0,mm,224,TA4
S0112,,SUMDIAM,14.0,mm,224,TA4
S0112,T01,LDIAM,5.0,mm,280,TA5
S0112,T02,LDIAM,4.9,mm,280,TA5
S0112,T03,LDIAM,4.0,mm,280,TA5
S0112,,SUMDIAM,14.0,mm,280,TA5
S0112,T01,LDIAM,5.0,mm,336,TA6
S0112,T02,LDIAM,4.9,mm,336,TA6
S0112,T03,LDIAM,4.0,mm,336,TA6
S0112,,SUMDIAM,14.0,mm,336,TA6
S0112,T01,LDIAM,5.0,mm,392,TA7
S0112,T02,LDIAM,4.9,mm,392,TA7
S0112,T03,LDIAM,4.0,mm,392,TA7
S0112,,SUMDIAM,14.0,mm,392,TA7
S0112,T01,LDIAM,9.0,mm,448,TA8
S0112,T02,LDIAM,8.8,mm,448,TA8
S0112,T03,LDIAM,7.1,mm,448,TA8
S0112,,SUMDIAM,24.8,mm,448,TA8
S0112,T01,LDIAM,9.0,mm,504,TA9
S0112,T02,LDIAM,8.8,mm,504,TA9
S0112,T03,LDIAM,7.1,mm,504,TA9
S0112,,SUMDIAM,24.8,mm,504,TA9
S0112,T01,LDIAM,9.0,mm,560,TA10
S0112,T02,LDIAM,8.8,mm,560,TA10
S0112,T03,LDIAM,7.1,mm,560,TA10
S0112,,SUMDIAM,24.8,mm,560,TA10
S0112,T01,LDIAM,9.0,mm,616,TA11
S0112,T02,LDIAM,8.8,mm,616,TA11
S0112,T03,LDIAM,7.1,mm,616,TA11
S0112,,SUMDIAM,24.8,mm,616,TA11
S0112,T01,LDIAM,9.0,mm,672,TA12
S0112,T02,LDIAM,8.8,mm,672,TA12
S0112,T03,LDIAM,7.1,mm,672,TA12
S0112,,SUMDIAM,24.8,mm,672,TA12
S0112,T01,LDIAM,9.0,mm,728,TA13
S0112,T02,LDIAM,8.8,mm,728,TA13
S0112,T03,LDIAM,7.1,mm,728,TA13
S0112,,SUMDIAM,24.8,mm,728,TA13
S0112,T01,LDIAM,9.0,mm,784,TA14
S0112,T02,LDIAM,8.8,mm,784,TA14
S0112,T03,LDIAM,7.1,mm,784,TA14
S0112,,SUMDIAM,24.8,mm,784,TA14
S0112,T01,LDIAM,9.0,mm,840,TA15
S0112,T02,LDIAM,8.8,mm,840,TA15
S0112,T03,LDIAM,7.1,mm,840,TA15
S0112,,SUMDIAM,24.8,mm,840,TA15
S0112,T01,LDIAM,9.0,mm,896,TA16
S0112,T02,LDIAM,8.8,mm,896,TA16
S0112,T03,LDIAM,7.1,mm,896,TA16
S0112,,SUMDIAM,24.8,mm,896,TA16
S0112,T01,LDIAM,9.0,mm,952,TA17
S0112,T02,LDIAM,8.8,mm,952,TA17
S0112,T03,LDIAM,7.1,mm,952,TA17
S0112,,SUMDIAM,24.8,mm,952,TA17
S0112,T01,LDIAM,9.0,mm,1008,TA18
S0112,T02,LDIAM,8.8,mm,1008,TA18
S0112,T03,LDIAM,7.1,mm,1008,TA18
S0112,,SUMDIAM,24.8,mm,1008,TA18
S0112,T01,LDIAM,9.0,mm,1064,TA19
S0112,T02,LDIAM,8.8,mm,1064,TA19
S0112,T03,LDIAM,7.1,mm,1064,TA19
S0112,,SUMDIAM,24.8,mm,1064,TA19
S0116,T01,LDIAM,25.8,mm,0,BASELINE
S0116,T02,LDIAM,47.6,mm,0,BASELINE
S0116,,SUMDIAM,73.4,mm,0,BASELINE
S0116,T01,LDIAM,19.0,mm,56,TA1
S0116,T02,LDIAM,35.0,mm,56,TA1
S0116,,SUMDIAM,53.9,mm,56,TA1
S0116,T01,LDIAM,12.1,mm,112,TA2
S0116,T02,LDIAM,22.4,mm,112,TA2
S0116,,SUMDIAM,34.5,mm,112,TA2
S0116,T01,LDIAM,15.8,mm,168,TA3
S0116,T02,LDIAM,29.2,mm,168,TA3
S0116,,SUMDIAM,45.1,mm,168,TA3
S0116,T01,LDIAM,15.8,mm,224,TA4
S0116,T02,LDIAM,29.2,mm,224,TA4
S0116,,SUMDIAM,45.1,mm,224,TA4
S0116,T01,LDIAM,15.8,mm,280,TA5
S0116,T02,LDIAM,29.2,mm,280,TA5
S0116,,SUMDIAM,45.1,mm,280,TA5
S0121,T01,LDIAM,13.6,mm,0,BASELINE
S0121,T02,LDIAM,17.0,mm,0,BASELINE
S0121,T03,LDIAM,11.8,mm,0,BASELINE
S0121,T04,LDIAM,36.3,mm,0,BASELINE
S0121,,SUMDIAM,78.7,mm,0,BASELINE
S0121,T01,LDIAM,11.9,mm,56,TA1
S0121,T02,LDIAM,14.9,mm,56,TA1
S0121,T03,LDIAM,10.3,mm,56,TA1
S0121,T04,LDIAM,31.8,mm,56,TA1
S0121,,SUMDIAM,68.9,mm,56,TA1
S0121,T01,LDIAM,10.2,mm,112,TA2
S0121,T02,LDIAM,12.8,mm,112,TA2
S0121,T03,LDIAM,8.9,mm,112,TA2
S0121,T04,LDIAM,27.3,mm,112,TA2
S0121,,SUMDIAM,59.1,mm,112,TA2
S0121,T01,LDIAM,10.2,mm,168,TA3
S0121,T02,LDIAM,12.8,mm,168,TA3
S0121,T03,LDIAM,8.9,mm,168,TA3
S0121,T04,LDIAM,27.3,mm,168,TA3
S0121,,SUMDIAM,59.1,mm,168,TA3
S0121,T01,LDIAM,10.2,mm,224,TA4
S0121,T02,LDIAM,12.8,mm,224,TA4
S0121,T03,LDIAM,8.9,mm,224,TA4
S0121,T04,LDIAM,27.3,mm,224,TA4
S0121,,SUMDIAM,59.1,mm,224,TA4
S0121,T01,LDIAM,10.2,mm,280,TA5
S0121,T02,LDIAM,12.8,mm,280,TA5
S0121,T03,LDIAM,8.9,mm,280,TA5
S0121,T04,LDIAM,27.3,mm,280,TA5
S0121,,SUMDIAM,59.1,mm,280,TA5
S0121,T01,LDIAM,10.2,mm,336,TA6
S0121,T02,LDIAM,12.8,mm,336,TA6
S0121,T03,LDIAM,8.9,mm,336,TA6
S0121,T04,LDIAM,27.3,mm,336,TA6
S0121,,SUMDIAM,59.1,mm,336,TA6
S0121,T01,LDIAM,10.2,mm,392,TA7
S0121,T02,LDIAM,12.8,mm,392,TA7
S0121,T03,LDIAM,8.9,mm,392,TA7
S0121,T04,LDIAM,27.3,mm,392,TA7
S0121,,SUMDIAM,59.1,mm,392,TA7
S0122,T01,LDIAM,57.0,mm,0,BASELINE
S0122,T02,LDIAM,28.2,mm,0,BASELINE
S0122,T03,LDIAM,44.8,mm,0,BASELINE
S0122,T04,LDIAM,46.9,mm,0,BASELINE
S0122,T05,LDIAM,17.4,mm,0,BASELINE
S0122,,SUMDIAM,194.3,mm,0,BASELINE
S0122,T01,LDIAM,71.2,mm,56,TA1
S0122,T02,LDIAM,35.2,mm,56,TA1
S0122,T03,LDIAM,56.0,mm,56,TA1
S0122,T04,LDIAM,58.6,mm,56,TA1
S0122,T05,LDIAM,21.8,mm,56,TA1
S0122,,SUMDIAM,242.9,mm,56,TA1
S0123,T01,LDIAM,32.0,mm,0,BASELINE
S0123,T02,LDIAM,20.2,mm,0,BASELINE
S0123,T03,LDIAM,46.3,mm,0,BASELINE
S0123,T04,LDIAM,29.4,mm,0,BASELINE
S0123,,SUMDIAM,127.9,mm,0,BASELINE
S0123,T01,LDIAM,27.7,mm,56,TA1
S0123,T02,LDIAM,17.5,mm,56,TA1
S0123,T03,LDIAM,40.1,mm,56,TA1
S0123,T04,LDIAM,25.5,mm,56,TA1
S0123,,SUMDIAM,110.8,mm,56,TA1
S0123,T01,LDIAM,23.5,mm,112,TA2
S0123,T02,LDIAM,14.8,mm,112,TA2
S0123,T03,LDIAM,34.0,mm,112,TA2
S0123,T04,LDIAM,21.6,mm,112,TA2
S0123,,SUMDIAM,93.8,mm,112,TA2
S0123,T01,LDIAM,23.5,mm,168,TA3
S0123,T02,LDIAM,14.8,mm,168,TA3
S0123,T03,LDIAM,34.0,mm,168,TA3
S0123,T04,LDIAM,21.6,mm,168,TA3
S0123,,SUMDIAM,93.8,mm,168,TA3
S0123,T01,LDIAM,23.5,mm,224,TA4
S0123,T02,LDIAM,14.8,mm,224,TA4
S0123,T03,LDIAM,34.0,mm,224,TA4
S0123,T04,LDIAM,21.6,mm,224,TA4
S0123,,SUMDIAM,93.8,mm,224,TA4
S0123,T01,LDIAM,23.5,mm,280,TA5
S0123,T02,LDIAM,14.8,mm,280,TA5
S0123,T03,LDIAM,34.0,mm,280,TA5
S0123,T04,LDIAM,21.6,mm,280,TA5
S0123,,SUMDIAM,93.8,mm,280,TA5
S0123,T01,LDIAM,23.5,mm,336,TA6
S0123,T02,LDIAM,14.8,mm,336,TA6
S0123,T03,LDIAM,34.0,mm,336,TA6
S0123,T04,LDIAM,21.6,mm,336,TA6
S0123,,SUMDIAM,93.8,mm,336,TA6
S0123,T01,LDIAM,23.5,mm,392,TA7
S0123,T02,LDIAM,14.8,mm,392,TA7
S0123,T03,LDIAM,34.0,mm,392,TA7
S0123,T04,LDIAM,21.6,mm,392,TA7
S0123,,SUMDIAM,93.8,mm,392,TA7
S0123,T01,LDIAM,23.5,mm,448,TA8
S0123,T02,LDIAM,14.8,mm,448,TA8
S0123,T03,LDIAM,34.0,mm,448,TA8
S0123,T04,LDIAM,21.6,mm,448,TA8
S0123,,SUMDIAM,93.8,mm,448,TA8
S0126,T01,LDIAM,13.4,mm,0,BASELINE
S0126,T02,LDIAM,10.0,mm,0,BASELINE
S0126,T03,LDIAM,52.7,mm,0,BASELINE
S0126,T04,LDIAM,19.2,mm,0,BASELINE
S0126,T05,LDIAM,40.9,mm,0,BASELINE
S0126,,SUMDIAM,136.2,mm,0,BASELINE
S0126,T01,LDIAM,16.8,mm,56,TA1
S0126,T02,LDIAM,12.5,mm,56,TA1
S0126,T03,LDIAM,65.9,mm,56,TA1
S0126,T04,LDIAM,24.0,mm,56,TA1
S0126,T05,LDIAM,51.1,mm,56,TA1
S0126,,SUMDIAM,170.2,mm,56,TA1
S0127,T01,LDIAM,46.4,mm,0,BASELINE
S0127,T02,LDIAM,28.4,mm,0,BASELINE
S0127,T03,LDIAM,17.0,mm,0,BASELINE
S0127,T04,LDIAM,49.6,mm,0,BASELINE
S0127,,SUMDIAM,141.4,mm,0,BASELINE
S0127,T01,LDIAM,37.1,mm,56,TA1
S0127,T02,LDIAM,22.7,mm,56,TA1
S0127,T03,LDIAM,13.6,mm,56,TA1
S0127,T04,LDIAM,39.7,mm,56,TA1
S0127,,SUMDIAM,113.1,mm,56,TA1
S0127,T01,LDIAM,46.9,mm,112,TA2
S0127,T02,LDIAM,28.7,mm,112,TA2
S0127,T03,LDIAM,17.2,mm,112,TA2
S0127,T04,LDIAM,50.1,mm,112,TA2
S0127,,SUMDIAM,142.8,mm,112,TA2
S0128,T01,LDIAM,53.6,mm,0,BASELINE
S0128,T02,LDIAM,33.8,mm,0,BASELINE
S0128,,SUMDIAM,87.4,mm,0,BASELINE
S0128,T01,LDIAM,39.4,mm,56,TA1
S0128,T02,LDIAM,24.9,mm,56,TA1
S0128,,SUMDIAM,64.3,mm,56,TA1
S0129,T01,LDIAM,11.1,mm,0,BASELINE
S0129,T02,LDIAM,11.0,mm,0,BASELINE
S0129,T03,LDIAM,57.4,mm,0,BASELINE
S0129,T04,LDIAM,55.5,mm,0,BASELINE
S0129,,SUMDIAM,135.0,mm,0,BASELINE
S0129,T01,LDIAM,11.1,mm,56,TA1
S0129,T02,LDIAM,11.0,mm,56,TA1
S0129,T03,LDIAM,57.5,mm,56,TA1
S0129,T04,LDIAM,55.6,mm,56,TA1
S0129,,SUMDIAM,135.2,mm,56,TA1
S0129,T01,LDIAM,11.1,mm,112,TA2
S0129,T02,LDIAM,11.0,mm,112,TA2
S0129,T03,LDIAM,57.6,mm,112,TA2
S0129,T04,LDIAM,55.7,mm,112,TA2
S0129,,SUMDIAM,135.4,mm,112,TA2
S0129,T01,LDIAM,11.1,mm,168,TA3
S0129,T02,LDIAM,11.0,mm,168,TA3
S0129,T03,LDIAM,57.6,mm,168,TA3
S0129,T04,LDIAM,55.7,mm,168,TA3
S0129,,SUMDIAM,135.4,mm,168,TA3
S0129,T01,LDIAM,11.1,mm,224,TA4
S0129,T02,LDIAM,11.0,mm,224,TA4
S0129,T03,LDIAM,57.6,mm,224,TA4
S0129,T04,LDIAM,55.7,mm,224,TA4
S0129,,SUMDIAM,135.4,mm,224,TA4
S0129,T01,LDIAM,11.1,mm,280,TA5
S0129,T02,LDIAM,11.0,mm,280,TA5
S0129,T03,LDIAM,57.6,mm,280,TA5
S0129,T04,LDIAM,55.7,mm,280,TA5
S0129,,SUMDIAM,135.4,mm,280,TA5
S0129,T01,LDIAM,11.1,mm,336,TA6
S0129,T02,LDIAM,11.0,mm,336,TA6
S0129,T03,LDIAM,57.6,mm,336,TA6
S0129,T04,LDIAM,55.7,mm,336,TA6
S0129,,SUMDIAM,135.4,mm,336,TA6
S0132,T01,LDIAM,14.2,mm,0,BASELINE
S0132,T02,LDIAM,39.1,mm,0,BASELINE
S0132,T03,LDIAM,28.4,mm,0,BASELINE
S0132,,SUMDIAM,81.7,mm,0,BASELINE
S0132,T01,LDIAM,11.0,mm,56,TA1
S0132,T02,LDIAM,30.2,mm,56,TA1
S0132,T03,LDIAM,21.9,mm,56,TA1
S0132,,SUMDIAM,63.1,mm,56,TA1
S0132,T01,LDIAM,7.7,mm,112,TA2
S0132,T02,LDIAM,21.3,mm,112,TA2
S0132,T03,LDIAM,15.5,mm,112,TA2
S0132,,SUMDIAM,44.5,mm,112,TA2
S0132,T01,LDIAM,7.7,mm,168,TA3
S0132,T02,LDIAM,21.3,mm,168,TA3
S0132,T03,LDIAM,15.5,mm,168,TA3
S0132,,SUMDIAM,44.5,mm,168,TA3
S0132,T01,LDIAM,7.7,mm,224,TA4
S0132,T02,LDIAM,21.3,mm,224,TA4
S0132,T03,LDIAM,15.5,mm,224,TA4
S0132,,SUMDIAM,44.5,mm,224,TA4
S0132,T01,LDIAM,7.7,mm,280,TA5
S0132,T02,LDIAM,21.3,mm,280,TA5
S0132,T03,LDIAM,15.5,mm,280,TA5
S0132,,SUMDIAM,44.5,mm,280,TA5
S0132,T01,LDIAM,7.7,mm,336,TA6
S0132,T02,LDIAM,21.3,mm,336,TA6
S0132,T03,LDIAM,15.5,mm,336,TA6
S0132,,SUMDIAM,44.5,mm,336,TA6
S0132,T01,LDIAM,7.7,mm,392,TA7
S0132,T02,LDIAM,21.3,mm,392,TA7
S0132,T03,LDIAM,15.5,mm,392,TA7
S0132,,SUMDIAM,44.5,mm,392,TA7
S0132,T01,LDIAM,7.7,mm,448,TA8
S0132,T02,LDIAM,21.3,mm,448,TA8
S0132,T03,LDIAM,15.5,mm,448,TA8
S0132,,SUMDIAM,44.5,mm,448,TA8
S0139,T01,LDIAM,19.5,mm,0,BASELINE
S0139,T02,LDIAM,32.8,mm,0,BASELINE
S0139,,SUMDIAM,52.3,mm,0,BASELINE
S0139,T01,LDIAM,14.6,mm,56,TA1
S0139,T02,LDIAM,24.6,mm,56,TA1
S0139,,SUMDIAM,39.2,mm,56,TA1
S0140,T01,LDIAM,41.4,mm,0,BASELINE
S0140,,SUMDIAM,41.4,mm,0,BASELINE
S0140,T01,LDIAM,22.2,mm,56,TA1
S0140,,SUMDIAM,22.2,mm,56,TA1
S0142,T01,LDIAM,36.7,mm,0,BASELINE
S0142,T02,LDIAM,20.0,mm,0,BASELINE
S0142,,SUMDIAM,56.7,mm,0,BASELINE
S0142,T01,LDIAM,45.9,mm,56,TA1
S0142,T02,LDIAM,25.0,mm,56,TA1
S0142,,SUMDIAM,70.9,mm,56,TA1
S0143,T01,LDIAM,57.5,mm,0,BASELINE
S0143,T02,LDIAM,39.3,mm,0,BASELINE
S0143,T03,LDIAM,14.7,mm,0,BASELINE
S0143,,SUMDIAM,111.5,mm,0,BASELINE
S0143,T01,LDIAM,29.3,mm,56,TA1
S0143,T02,LDIAM,20.0,mm,56,TA1
S0143,T03,LDIAM,7.5,mm,56,TA1
S0143,,SUMDIAM,56.9,mm,56,TA1
S0143,T01,LDIAM,1.1,mm,112,TA2
S0143,T02,LDIAM,0.8,mm,112,TA2
S0143,T03,LDIAM,0.3,mm,112,TA2
S0143,,SUMDIAM,2.2,mm,112,TA2
S0143,T01,LDIAM,1.1,mm,168,TA3
S0143,T02,LDIAM,0.8,mm,168,TA3
S0143,T03,LDIAM,0.3,mm,168,TA3
S0143,,SUMDIAM,2.2,mm,168,TA3
S0143,T01,LDIAM,1.1,mm,224,TA4
S0143,T02,LDIAM,0.8,mm,224,TA4
S0143,T03,LDIAM,0.3,mm,224,TA4
S0143,,SUMDIAM,2.2,mm,224,TA4
S0143,T01,LDIAM,1.1,mm,280,TA5
S0143,T02,LDIAM,0.8,mm,280,TA5
S0143,T03,LDIAM,0.3,mm,280,TA5
S0143,,SUMDIAM,2.2,mm,280,TA5
S0143,T01,LDIAM,1.1,mm,336,TA6
S0143,T02,LDIAM,0.8,mm,336,TA6
S0143,T03,LDIAM,0.3,mm,336,TA6
S0143,,SUMDIAM,2.2,mm,336,TA6
S0143,T01,LDIAM,1.1,mm,392,TA7
S0143,T02,LDIAM,0.8,mm,392,TA7
S0143,T03,LDIAM,0.3,mm,392,TA7
S0143,,SUMDIAM,2.2,mm,392,TA7
S0143,T01,LDIAM,1.1,mm,448,TA8
S0143,T02,LDIAM,0.8,mm,448,TA8
S0143,T03,LDIAM,0.3,mm,448,TA8
S0143,,SUMDIAM,2.2,mm,448,TA8
S0143,T01,LDIAM,4.2,mm,504,TA9
S0143,T02,LDIAM,2.9,mm,504,TA9
S0143,T03,LDIAM,1.1,mm,504,TA9
S0143,,SUMDIAM,8.2,mm,504,TA9
S0143,T01,LDIAM,4.2,mm,560,TA10
S0143,T02,LDIAM,2.9,mm,560,TA10
S0143,T03,LDIAM,1.1,mm,560,TA10
S0143,,SUMDIAM,8.2,mm,560,TA10
S0143,T01,LDIAM,4.2,mm,616,TA11
S0143,T02,LDIAM,2.9,mm,616,TA11
S0143,T03,LDIAM,1.1,mm,616,TA11
S0143,,SUMDIAM,8.2,mm,616,TA11
S0145,T01,LDIAM,43.3,mm,0,BASELINE
S0145,,SUMDIAM,43.3,mm,0,BASELINE
S0145,T01,LDIAM,30.2,mm,56,TA1
S0145,,SUMDIAM,30.2,mm,56,TA1
S0145,T01,LDIAM,17.0,mm,112,TA2
S0145,,SUMDIAM,17.0,mm,112,TA2
S0145,T01,LDIAM,17.0,mm,168,TA3
S0145,,SUMDIAM,17.0,mm,168,TA3
S0145,T01,LDIAM,17.0,mm,224,TA4
S0145,,SUMDIAM,17.0,mm,224,TA4
S0149,T01,LDIAM,46.6,mm,0,BASELINE
S0149,T02,LDIAM,20.4,mm,0,BASELINE
S0149,T03,LDIAM,21.2,mm,0,BASELINE
S0149,T04,LDIAM,43.6,mm,0,BASELINE
S0149,T05,LDIAM,16.1,mm,0,BASELINE
S0149,,SUMDIAM,147.9,mm,0,BASELINE
S0149,T01,LDIAM,36.9,mm,56,TA1
S0149,T02,LDIAM,16.1,mm,56,TA1
S0149,T03,LDIAM,16.8,mm,56,TA1
S0149,T04,LDIAM,34.5,mm,56,TA1
S0149,T05,LDIAM,12.7,mm,56,TA1
S0149,,SUMDIAM,117.0,mm,56,TA1
S0149,T01,LDIAM,27.2,mm,112,TA2
S0149,T02,LDIAM,11.9,mm,112,TA2
S0149,T03,LDIAM,12.4,mm,112,TA2
S0149,T04,LDIAM,25.4,mm,112,TA2
S0149,T05,LDIAM,9.4,mm,112,TA2
S0149,,SUMDIAM,86.2,mm,112,TA2
S0149,T01,LDIAM,27.2,mm,168,TA3
S0149,T02,LDIAM,11.9,mm,168,TA3
S0149,T03,LDIAM,12.4,mm,168,TA3
S0149,T04,LDIAM,25.4,mm,168,TA3
S0149,T05,LDIAM,9.4,mm,168,TA3
S0149,,SUMDIAM,86.2,mm,168,TA3
S0149,T01,LDIAM,27.2,mm,224,TA4
S0149,T02,LDIAM,11.9,mm,224,TA4
S0149,T03,LDIAM,12.4,mm,224,TA4
S0149,T04,LDIAM,25.4,mm,224,TA4
S0149,T05,LDIAM,9.4,mm,224,TA4
S0149,,SUMDIAM,86.2,mm,224,TA4
S0149,T01,LDIAM,27.2,mm,280,TA5
S0149,T02,LDIAM,11.9,mm,280,TA5
S0149,T03,LDIAM,12.4,mm,280,TA5
S0149,T04,LDIAM,25.4,mm,280,TA5
S0149,T05,LDIAM,9.4,mm,280,TA5
S0149,,SUMDIAM,86.2,mm,280,TA5
S0149,T01,LDIAM,27.2,mm,336,TA6
S0149,T02,LDIAM,11.9,mm,336,TA6
S0149,T03,LDIAM,12.4,mm,336,TA6
S0149,T04,LDIAM,25.4,mm,336,TA6
S0149,T05,LDIAM,9.4,mm,336,TA6
S0149,,SUMDIAM,86.2,mm,336,TA6
S0149,T01,LDIAM,27.2,mm,392,TA7
S0149,T02,LDIAM,11.9,mm,392,TA7
S0149,T03,LDIAM,12.4,mm,392,TA7
S0149,T04,LDIAM,25.4,mm,392,TA7
S0149,T05,LDIAM,9.4,mm,392,TA7
S0149,,SUMDIAM,86.2,mm,392,TA7
S0149,T01,LDIAM,27.2,mm,448,TA8
S0149,T02,LDIAM,11.9,mm,448,TA8
S0149,T03,LDIAM,12.4,mm,448,TA8
S0149,T04,LDIAM,25.4,mm,448,TA8
S0149,T05,LDIAM,9.4,mm,448,TA8
S0149,,SUMDIAM,86.2,mm,448,TA8
S0149,T01,LDIAM,27.2,mm,504,TA9
S0149,T02,LDIAM,11.9,mm,504,TA9
S0149,T03,LDIAM,12.4,mm,504,TA9
S0149,T04,LDIAM,25.4,mm,504,TA9
S0149,T05,LDIAM,9.4,mm,504,TA9
S0149,,SUMDIAM,86.2,mm,504,TA9
S0149,T01,LDIAM,27.2,mm,560,TA10
S0149,T02,LDIAM,11.9,mm,560,TA10
S0149,T03,LDIAM,12.4,mm,560,TA10
S0149,T04,LDIAM,25.4,mm,560,TA10
S0149,T05,LDIAM,9.4,mm,560,TA10
S0149,,SUMDIAM,86.2,mm,560,TA10
S0149,T01,LDIAM,27.2,mm,616,TA11
S0149,T02,LDIAM,11.9,mm,616,TA11
S0149,T03,LDIAM,12.4,mm,616,TA11
S0149,T04,LDIAM,25.4,mm,616,TA11
S0149,T05,LDIAM,9.4,mm,616,TA11
S0149,,SUMDIAM,86.2,mm,616,TA11
S0149,T01,LDIAM,27.2,mm,672,TA12
S0149,T02,LDIAM,11.9,mm,672,TA12
S0149,T03,LDIAM,12.4,mm,672,TA12
S0149,T04,LDIAM,25.4,mm,672,TA12
S0149,T05,LDIAM,9.4,mm,672,TA12
S0149,,SUMDIAM,86.2,mm,672,TA12
S0149,T01,LDIAM,27.2,mm,728,TA13
S0149,T02,LDIAM,11.9,mm,728,TA13
S0149,T03,LDIAM,12.4,mm,728,TA13
S0149,T04,LDIAM,25.4,mm,728,TA13
S0149,T05,LDIAM,9.4,mm,728,TA13
S0149,,SUMDIAM,86.2,mm,728,TA13
S0149,T01,LDIAM,27.2,mm,784,TA14
S0149,T02,LDIAM,11.9,mm,784,TA14
S0149,T03,LDIAM,12.4,mm,784,TA14
S0149,T04,LDIAM,25.4,mm,784,TA14
S0149,T05,LDIAM,9.4,mm,784,TA14
S0149,,SUMDIAM,86.2,mm,784,TA14
S0149,T01,LDIAM,27.2,mm,840,TA15
S0149,T02,LDIAM,11.9,mm,840,TA15
S0149,T03,LDIAM,12.4,mm,840,TA15
S0149,T04,LDIAM,25.4,mm,840,TA15
S0149,T05,LDIAM,9.4,mm,840,TA15
S0149,,SUMDIAM,86.2,mm,840,TA15
S0149,T01,LDIAM,27.2,mm,896,TA16
S0149,T02,LDIAM,11.9,mm,896,TA16
S0149,T03,LDIAM,12.4,mm,896,TA16
S0149,T04,LDIAM,25.4,mm,896,TA16
S0149,T05,LDIAM,9.4,mm,896,TA16
S0149,,SUMDIAM,86.2,mm,896,TA16
S0149,T01,LDIAM,34.9,mm,952,TA17
S0149,T02,LDIAM,15.3,mm,952,TA17
S0149,T03,LDIAM,15.9,mm,952,TA17
S0149,T04,LDIAM,32.7,mm,952,TA17
S0149,T05,LDIAM,12.1,mm,952,TA17
S0149,,SUMDIAM,110.8,mm,952,TA17
S0158,T01,LDIAM,27.5,mm,0,BASELINE
S0158,T02,LDIAM,40.6,mm,0,BASELINE
S0158,T03,LDIAM,39.6,mm,0,BASELINE
S0158,,SUMDIAM,107.7,mm,0,BASELINE
S0158,T01,LDIAM,18.4,mm,56,TA1
S0158,T02,LDIAM,27.1,mm,56,TA1
S0158,T03,LDIAM,26.4,mm,56,TA1
S0158,,SUMDIAM,71.9,mm,56,TA1
S0158,T01,LDIAM,23.4,mm,112,TA2
S0158,T02,LDIAM,34.6,mm,112,TA2
S0158,T03,LDIAM,33.7,mm,112,TA2
S0158,,SUMDIAM,91.7,mm,112,TA2
S0159,T01,LDIAM,51.2,mm,0,BASELINE
S0159,T02,LDIAM,25.2,mm,0,BASELINE
S0159,T03,LDIAM,10.0,mm,0,BASELINE
S0159,T04,LDIAM,25.1,mm,0,BASELINE
S0159,,SUMDIAM,111.5,mm,0,BASELINE
S0159,T01,LDIAM,29.8,mm,56,TA1
S0159,T02,LDIAM,14.7,mm,56,TA1
S0159,T03,LDIAM,5.8,mm,56,TA1
S0159,T04,LDIAM,14.6,mm,56,TA1
S0159,,SUMDIAM,64.9,mm,56,TA1
S0159,T01,LDIAM,38.3,mm,112,TA2
S0159,T02,LDIAM,18.9,mm,112,TA2
S0159,T03,LDIAM,7.5,mm,112,TA2
S0159,T04,LDIAM,18.8,mm,112,TA2
S0159,,SUMDIAM,83.5,mm,112,TA2
S0160,T01,LDIAM,40.8,mm,0,BASELINE
S0160,T02,LDIAM,41.8,mm,0,BASELINE
S0160,T03,LDIAM,20.9,mm,0,BASELINE
S0160,,SUMDIAM,103.5,mm,0,BASELINE
S0160,T01,LDIAM,42.9,mm,56,TA1
S0160,T02,LDIAM,44.0,mm,56,TA1
S0160,T03,LDIAM,22.0,mm,56,TA1
S0160,,SUMDIAM,108.8,mm,56,TA1
S0160,T01,LDIAM,45.0,mm,112,TA2
S0160,T02,LDIAM,46.1,mm,112,TA2
S0160,T03,LDIAM,23.1,mm,112,TA2
S0160,,SUMDIAM,114.2,mm,112,TA2
S0160,T01,LDIAM,45.0,mm,168,TA3
S0160,T02,LDIAM,46.1,mm,168,TA3
S0160,T03,LDIAM,23.1,mm,168,TA3
S0160,,SUMDIAM,114.2,mm,168,TA3
S0160,T01,LDIAM,51.0,mm,224,TA4
S0160,T02,LDIAM,52.2,mm,224,TA4
S0160,T03,LDIAM,26.1,mm,224,TA4
S0160,,SUMDIAM,129.4,mm,224,TA4
S0165,T01,LDIAM,49.8,mm,0,BASELINE
S0165,T02,LDIAM,20.1,mm,0,BASELINE
S0165,T03,LDIAM,33.8,mm,0,BASELINE
S0165,T04,LDIAM,34.3,mm,0,BASELINE
S0165,,SUMDIAM,138.0,mm,0,BASELINE
S0165,T01,LDIAM,24.9,mm,56,TA1
S0165,T02,LDIAM,10.1,mm,56,TA1
S0165,T03,LDIAM,16.9,mm,56,TA1
S0165,T04,LDIAM,17.1,mm,56,TA1
S0165,,SUMDIAM,69.0,mm,56,TA1
S0165,T01,LDIAM,0.0,mm,112,TA2
S0165,T02,LDIAM,0.0,mm,112,TA2
S0165,T03,LDIAM,0.0,mm,112,TA2
S0165,T04,LDIAM,0.0,mm,112,TA2
S0165,,SUMDIAM,0.0,mm,112,TA2
S0165,T01,LDIAM,2.5,mm,168,TA3
S0165,T02,LDIAM,1.0,mm,168,TA3
S0165,T03,LDIAM,1.7,mm,168,TA3
S0165,T04,LDIAM,1.7,mm,168,TA3
S0165,,SUMDIAM,6.9,mm,168,TA3
S0165,T01,LDIAM,2.5,mm,224,TA4
S0165,T02,LDIAM,1.0,mm,224,TA4
S0165,T03,LDIAM,1.7,mm,224,TA4
S0165,T04,LDIAM,1.7,mm,224,TA4
S0165,,SUMDIAM,6.9,mm,224,TA4
S0165,T01,LDIAM,2.5,mm,280,TA5
S0165,T02,LDIAM,1.0,mm,280,TA5
S0165,T03,LDIAM,1.7,mm,280,TA5
S0165,T04,LDIAM,1.7,mm,280,TA5
S0165,,SUMDIAM,6.9,mm,280,TA5
S0165,T01,LDIAM,2.5,mm,336,TA6
S0165,T02,LDIAM,1.0,mm,336,TA6
S0165,T03,LDIAM,1.7,mm,336,TA6
S0165,T04,LDIAM,1.7,mm,336,TA6
S0165,,SUMDIAM,6.9,mm,336,TA6
S0165,T01,LDIAM,2.5,mm,392,TA7
S0165,T02,LDIAM,1.0,mm,392,TA7
S0165,T03,LDIAM,1.7,mm,392,TA7
S0165,T04,LDIAM,1.7,mm,392,TA7
S0165,,SUMDIAM,6.9,mm,392,TA7
S0165,T01,LDIAM,2.5,mm,448,TA8
S0165,T02,LDIAM,1.0,mm,448,TA8
S0165,T03,LDIAM,1.7,mm,448,TA8
S0165,T04,LDIAM,1.7,mm,448,TA8
S0165,,SUMDIAM,6.9,mm,448,TA8
S0165,T01,LDIAM,2.5,mm,504,TA9
S0165,T02,LDIAM,1.0,mm,504,TA9
S0165,T03,LDIAM,1.7,mm,504,TA9
S0165,T04,LDIAM,1.7,mm,504,TA9
S0165,,SUMDIAM,6.9,mm,504,TA9
S0165,T01,LDIAM,2.5,mm,560,TA10
S0165,T02,LDIAM,1.0,mm,560,TA10
S0165,T03,LDIAM,1.7,mm,560,TA10
S0165,T04,LDIAM,1.7,mm,560,TA10
S0165,,SUMDIAM,6.9,mm,560,TA10
S0165,T01,LDIAM,2.5,mm,616,TA11
S0165,T02,LDIAM,1.0,mm,616,TA11
S0165,T03,LDIAM,1.7,mm,616,TA11
S0165,T04,LDIAM,1.7,mm,616,TA11
S0165,,SUMDIAM,6.9,mm,616,TA11
S0165,T01,LDIAM,2.5,mm,672,TA12
S0165,T02,LDIAM,1.0,mm,672,TA12
S0165,T03,LDIAM,1.7,mm,672,TA12
S0165,T04,LDIAM,1.7,mm,672,TA12
S0165,,SUMDIAM,6.9,mm,672,TA12
S0168,T01,LDIAM,50.8,mm,0,BASELINE
S0168,T02,LDIAM,23.2,mm,0,BASELINE
S0168,T03,LDIAM,43.8,mm,0,BASELINE
S0168,T04,LDIAM,19.1,mm,0,BASELINE
S0168,,SUMDIAM,136.9,mm,0,BASELINE
S0168,T01,LDIAM,25.4,mm,56,TA1
S0168,T02,LDIAM,11.6,mm,56,TA1
S0168,T03,LDIAM,21.9,mm,56,TA1
S0168,T04,LDIAM,9.6,mm,56,TA1
S0168,,SUMDIAM,68.5,mm,56,TA1
S0168,T01,LDIAM,33.0,mm,112,TA2
S0168,T02,LDIAM,15.1,mm,112,TA2
S0168,T03,LDIAM,28.5,mm,112,TA2
S0168,T04,LDIAM,12.4,mm,112,TA2
S0168,,SUMDIAM,89.0,mm,112,TA2
S0168,T01,LDIAM,33.0,mm,168,TA3
S0168,T02,LDIAM,15.1,mm,168,TA3
S0168,T03,LDIAM,28.5,mm,168,TA3
S0168,T04,LDIAM,12.4,mm,168,TA3
S0168,,SUMDIAM,89.0,mm,168,TA3
S0168,T01,LDIAM,33.0,mm,224,TA4
S0168,T02,LDIAM,15.1,mm,224,TA4
S0168,T03,LDIAM,28.5,mm,224,TA4
S0168,T04,LDIAM,12.4,mm,224,TA4
S0168,,SUMDIAM,89.0,mm,224,TA4
S0168,T01,LDIAM,33.0,mm,280,TA5
S0168,T02,LDIAM,15.1,mm,280,TA5
S0168,T03,LDIAM,28.5,mm,280,TA5
S0168,T04,LDIAM,12.4,mm,280,TA5
S0168,,SUMDIAM,89.0,mm,280,TA5
S0168,T01,LDIAM,33.0,mm,336,TA6
S0168,T02,LDIAM,15.1,mm,336,TA6
S0168,T03,LDIAM,28.5,mm,336,TA6
S0168,T04,LDIAM,12.4,mm,336,TA6
S0168,,SUMDIAM,89.0,mm,336,TA6
S0168,T01,LDIAM,33.0,mm,392,TA7
S0168,T02,LDIAM,15.1,mm,392,TA7
S0168,T03,LDIAM,28.5,mm,392,TA7
S0168,T04,LDIAM,12.4,mm,392,TA7
S0168,,SUMDIAM,89.0,mm,392,TA7
S0168,T01,LDIAM,33.0,mm,448,TA8
S0168,T02,LDIAM,15.1,mm,448,TA8
S0168,T03,LDIAM,28.5,mm,448,TA8
S0168,T04,LDIAM,12.4,mm,448,TA8
S0168,,SUMDIAM,89.0,mm,448,TA8
S0168,T01,LDIAM,33.0,mm,504,TA9
S0168,T02,LDIAM,15.1,mm,504,TA9
S0168,T03,LDIAM,28.5,mm,504,TA9
S0168,T04,LDIAM,12.4,mm,504,TA9
S0168,,SUMDIAM,89.0,mm,504,TA9
S0171,T01,LDIAM,41.1,mm,0,BASELINE
S0171,T02,LDIAM,43.7,mm,0,BASELINE
S0171,T03,LDIAM,58.2,mm,0,BASELINE
S0171,T04,LDIAM,33.9,mm,0,BASELINE
S0171,,SUMDIAM,176.9,mm,0,BASELINE
S0171,T01,LDIAM,51.4,mm,56,TA1
S0171,T02,LDIAM,54.6,mm,56,TA1
S0171,T03,LDIAM,72.8,mm,56,TA1
S0171,T04,LDIAM,42.4,mm,56,TA1
S0171,,SUMDIAM,221.1,mm,56,TA1
S0174,T01,LDIAM,55.4,mm,0,BASELINE
S0174,,SUMDIAM,55.4,mm,0,BASELINE
S0174,T01,LDIAM,51.6,mm,56,TA1
S0174,,SUMDIAM,51.6,mm,56,TA1
S0174,T01,LDIAM,47.8,mm,112,TA2
S0174,,SUMDIAM,47.8,mm,112,TA2
S0174,T01,LDIAM,47.8,mm,168,TA3
S0174,,SUMDIAM,47.8,mm,168,TA3
S0174,T01,LDIAM,47.8,mm,224,TA4
S0174,,SUMDIAM,47.8,mm,224,TA4
S0174,T01,LDIAM,47.8,mm,280,TA5
S0174,,SUMDIAM,47.8,mm,280,TA5
S0174,T01,LDIAM,60.1,mm,336,TA6
S0174,,SUMDIAM,60.1,mm,336,TA6
S0177,T01,LDIAM,22.7,mm,0,BASELINE
S0177,T02,LDIAM,50.4,mm,0,BASELINE
S0177,T03,LDIAM,39.5,mm,0,BASELINE
S0177,,SUMDIAM,112.6,mm,0,BASELINE
S0177,T01,LDIAM,24.5,mm,56,TA1
S0177,T02,LDIAM,54.4,mm,56,TA1
S0177,T03,LDIAM,42.6,mm,56,TA1
S0177,,SUMDIAM,121.4,mm,56,TA1
S0177,T01,LDIAM,26.3,mm,112,TA2
S0177,T02,LDIAM,58.3,mm,112,TA2
S0177,T03,LDIAM,45.7,mm,112,TA2
S0177,,SUMDIAM,130.3,mm,112,TA2
S0177,T01,LDIAM,26.3,mm,168,TA3
S0177,T02,LDIAM,58.3,mm,168,TA3
S0177,T03,LDIAM,45.7,mm,168,TA3
S0177,,SUMDIAM,130.3,mm,168,TA3
S0177,T01,LDIAM,26.3,mm,224,TA4
S0177,T02,LDIAM,58.3,mm,224,TA4
S0177,T03,LDIAM,45.7,mm,224,TA4
S0177,,SUMDIAM,130.3,mm,224,TA4
S0177,T01,LDIAM,26.3,mm,280,TA5
S0177,T02,LDIAM,58.3,mm,280,TA5
S0177,T03,LDIAM,45.7,mm,280,TA5
S0177,,SUMDIAM,130.3,mm,280,TA5
S0177,T01,LDIAM,26.3,mm,336,TA6
S0177,T02,LDIAM,58.3,mm,336,TA6
S0177,T03,LDIAM,45.7,mm,336,TA6
S0177,,SUMDIAM,130.3,mm,336,TA6
S0177,T01,LDIAM,26.3,mm,392,TA7
S0177,T02,LDIAM,58.3,mm,392,TA7
S0177,T03,LDIAM,45.7,mm,392,TA7
S0177,,SUMDIAM,130.3,mm,392,TA7
S0177,T01,LDIAM,26.3,mm,448,TA8
S0177,T02,LDIAM,58.3,mm,448,TA8
S0177,T03,LDIAM,45.7,mm,448,TA8
S0177,,SUMDIAM,130.3,mm,448,TA8
S0177,T01,LDIAM,26.3,mm,504,TA9
S0177,T02,LDIAM,58.3,mm,504,TA9
S0177,T03,LDIAM,45.7,mm,504,TA9
S0177,,SUMDIAM,130.3,mm,504,TA9
S0177,T01,LDIAM,26.3,mm,560,TA10
S0177,T02,LDIAM,58.3,mm,560,TA10
S0177,T03,LDIAM,45.7,mm,560,TA10
S0177,,SUMDIAM,130.3,mm,560,TA10
S0177,T01,LDIAM,26.3,mm,616,TA11
S0177,T02,LDIAM,58.3,mm,616,TA11
S0177,T03,LDIAM,45.7,mm,616,TA11
S0177,,SUMDIAM,130.3,mm,616,TA11
S0177,T01,LDIAM,26.3,mm,672,TA12
S0177,T02,LDIAM,58.3,mm,672,TA12
S0177,T03,LDIAM,45.7,mm,672,TA12
S0177,,SUMDIAM,130.3,mm,672,TA12
S0177,T01,LDIAM,26.3,mm,728,TA13
S0177,T02,LDIAM,58.3,mm,728,TA13
S0177,T03,LDIAM,45.7,mm,728,TA13
S0177,,SUMDIAM,130.3,mm,728,TA13
S0177,T01,LDIAM,26.3,mm,784,TA14
S0177,T02,LDIAM,58.3,mm,784,TA14
S0177,T03,LDIAM,45.7,mm,784,TA14
S0177,,SUMDIAM,130.3,mm,784,TA14
S0177,T01,LDIAM,26.3,mm,840,TA15
S0177,T02,LDIAM,58.3,mm,840,TA15
S0177,T03,LDIAM,45.7,mm,840,TA15
S0177,,SUMDIAM,130.3,mm,840,TA15
S0177,T01,LDIAM,26.3,mm,896,TA16
S0177,T02,LDIAM,58.3,mm,896,TA16
S0177,T03,LDIAM,45.7,mm,896,TA16
S0177,,SUMDIAM,130.3,mm,896,TA16
S0177,T01,LDIAM,26.3,mm,952,TA17
S0177,T02,LDIAM,58.3,mm,952,TA17
S0177,T03,LDIAM,45.7,mm,952,TA17
S0177,,SUMDIAM,130.3,mm,952,TA17
S0177,T01,LDIAM,26.3,mm,1008,TA18
S0177,T02,LDIAM,58.3,mm,1008,TA18
S0177,T03,LDIAM,45.7,mm,1008,TA18
S0177,,SUMDIAM,130.3,mm,1008,TA18
S0177,T01,LDIAM,26.3,mm,1064,TA19
S0177,T02,LDIAM,58.3,mm,1064,TA19
S0177,T03,LDIAM,45.7,mm,1064,TA19
S0177,,SUMDIAM,130.3,mm,1064,TA19
S0177,T01,LDIAM,26.3,mm,1120,TA20
S0177,T02,LDIAM,58.3,mm,1120,TA20
S0177,T03,LDIAM,45.7,mm,1120,TA20
S0177,,SUMDIAM,130.3,mm,1120,TA20
S0177,T01,LDIAM,26.3,mm,1176,TA21
S0177,T02,LDIAM,58.3,mm,1176,TA21
S0177,T03,LDIAM,45.7,mm,1176,TA21
S0177,,SUMDIAM,130.3,mm,1176,TA21
S0177,T01,LDIAM,26.3,mm,1232,TA22
S0177,T02,LDIAM,58.3,mm,1232,TA22
S0177,T03,LDIAM,45.7,mm,1232,TA22
S0177,,SUMDIAM,130.3,mm,1232,TA22
S0177,T01,LDIAM,26.3,mm,1288,TA23
S0177,T02,LDIAM,58.3,mm,1288,TA23
S0177,T03,LDIAM,45.7,mm,1288,TA23
S0177,,SUMDIAM,130.3,mm,1288,TA23
S0177,T01,LDIAM,26.3,mm,1344,TA24
S0177,T02,LDIAM,58.3,mm,1344,TA24
S0177,T03,LDIAM,45.7,mm,1344,TA24
S0177,,SUMDIAM,130.3,mm,1344,TA24
S0177,T01,LDIAM,26.3,mm,1400,TA25
S0177,T02,LDIAM,58.3,mm,1400,TA25
S0177,T03,LDIAM,45.7,mm,1400,TA25
S0177,,SUMDIAM,130.3,mm,1400,TA25
S0177,T01,LDIAM,28.4,mm,1456,TA26
S0177,T02,LDIAM,63.0,mm,1456,TA26
S0177,T03,LDIAM,49.4,mm,1456,TA26
S0177,,SUMDIAM,140.8,mm,1456,TA26
S0180,T01,LDIAM,50.2,mm,0,BASELINE
S0180,,SUMDIAM,50.2,mm,0,BASELINE
S0180,T01,LDIAM,28.0,mm,56,TA1
S0180,,SUMDIAM,28.0,mm,56,TA1
S0180,T01,LDIAM,5.9,mm,112,TA2
S0180,,SUMDIAM,5.9,mm,112,TA2
S0180,T01,LDIAM,5.9,mm,168,TA3
S0180,,SUMDIAM,5.9,mm,168,TA3
S0001,T01,LDIAM,44.9,mm,0,BASELINE
S0001,T02,LDIAM,36.6,mm,0,BASELINE
S0001,T03,LDIAM,50.2,mm,0,BASELINE
S0001,,SUMDIAM,131.7,mm,0,BASELINE
S0001,T01,LDIAM,36.5,mm,56,TA1
S0001,T02,LDIAM,29.8,mm,56,TA1
S0001,T03,LDIAM,40.9,mm,56,TA1
S0001,,SUMDIAM,107.2,mm,56,TA1
S0001,T01,LDIAM,28.2,mm,112,TA2
S0001,T02,LDIAM,23.0,mm,112,TA2
S0001,T03,LDIAM,31.5,mm,112,TA2
S0001,,SUMDIAM,82.7,mm,112,TA2
S0001,T01,LDIAM,28.2,mm,168,TA3
S0001,T02,LDIAM,23.0,mm,168,TA3
S0001,T03,LDIAM,31.5,mm,168,TA3
S0001,,SUMDIAM,82.7,mm,168,TA3
S0001,T01,LDIAM,28.2,mm,224,TA4
S0001,T02,LDIAM,23.0,mm,224,TA4
S0001,T03,LDIAM,31.5,mm,224,TA4
S0001,,SUMDIAM,82.7,mm,224,TA4
S0001,T01,LDIAM,28.2,mm,280,TA5
S0001,T02,LDIAM,23.0,mm,280,TA5
S0001,T03,LDIAM,31.5,mm,280,TA5
S0001,,SUMDIAM,82.7,mm,280,TA5
S0001,T01,LDIAM,28.2,mm,336,TA6
S0001,T02,LDIAM,23.0,mm,336,TA6
S0001,T03,LDIAM,31.5,mm,336,TA6
S0001,,SUMDIAM,82.7,mm,336,TA6
S0001,T01,LDIAM,28.2,mm,392,TA7
S0001,T02,LDIAM,23.0,mm,392,TA7
S0001,T03,LDIAM,31.5,mm,392,TA7
S0001,,SUMDIAM,82.7,mm,392,TA7
S0001,T01,LDIAM,36.1,mm,448,TA8
S0001,T02,LDIAM,29.4,mm,448,TA8
S0001,T03,LDIAM,40.3,mm,448,TA8
S0001,,SUMDIAM,105.8,mm,448,TA8
S0004,T01,LDIAM,39.6,mm,0,BASELINE
S0004,T02,LDIAM,34.7,mm,0,BASELINE
S0004,T03,LDIAM,33.5,mm,0,BASELINE
S0004,T04,LDIAM,27.2,mm,0,BASELINE
S0004,,SUMDIAM,135.0,mm,0,BASELINE
S0004,T01,LDIAM,49.5,mm,56,TA1
S0004,T02,LDIAM,43.4,mm,56,TA1
S0004,T03,LDIAM,41.9,mm,56,TA1
S0004,T04,LDIAM,34.0,mm,56,TA1
S0004,,SUMDIAM,168.8,mm,56,TA1
S0006,T01,LDIAM,45.9,mm,0,BASELINE
S0006,T02,LDIAM,40.4,mm,0,BASELINE
S0006,,SUMDIAM,86.3,mm,0,BASELINE
S0006,T01,LDIAM,33.4,mm,56,TA1
S0006,T02,LDIAM,29.4,mm,56,TA1
S0006,,SUMDIAM,62.7,mm,56,TA1
S0006,T01,LDIAM,20.8,mm,112,TA2
S0006,T02,LDIAM,18.3,mm,112,TA2
S0006,,SUMDIAM,39.2,mm,112,TA2
S0006,T01,LDIAM,20.8,mm,168,TA3
S0006,T02,LDIAM,18.3,mm,168,TA3
S0006,,SUMDIAM,39.2,mm,168,TA3
S0006,T01,LDIAM,20.8,mm,224,TA4
S0006,T02,LDIAM,18.3,mm,224,TA4
S0006,,SUMDIAM,39.2,mm,224,TA4
S0008,T01,LDIAM,19.1,mm,0,BASELINE
S0008,T02,LDIAM,30.6,mm,0,BASELINE
S0008,T03,LDIAM,42.4,mm,0,BASELINE
S0008,T04,LDIAM,38.9,mm,0,BASELINE
S0008,,SUMDIAM,131.0,mm,0,BASELINE
S0008,T01,LDIAM,23.9,mm,56,TA1
S0008,T02,LDIAM,38.2,mm,56,TA1
S0008,T03,LDIAM,53.0,mm,56,TA1
S0008,T04,LDIAM,48.6,mm,56,TA1
S0008,,SUMDIAM,163.8,mm,56,TA1
S0014,T01,LDIAM,51.0,mm,0,BASELINE
S0014,T02,LDIAM,43.8,mm,0,BASELINE
S0014,,SUMDIAM,94.8,mm,0,BASELINE
S0014,T01,LDIAM,29.4,mm,56,TA1
S0014,T02,LDIAM,25.2,mm,56,TA1
S0014,,SUMDIAM,54.6,mm,56,TA1
S0015,T01,LDIAM,49.7,mm,0,BASELINE
S0015,T02,LDIAM,37.0,mm,0,BASELINE
S0015,T03,LDIAM,28.3,mm,0,BASELINE
S0015,,SUMDIAM,115.0,mm,0,BASELINE
S0015,T01,LDIAM,53.0,mm,56,TA1
S0015,T02,LDIAM,39.4,mm,56,TA1
S0015,T03,LDIAM,30.2,mm,56,TA1
S0015,,SUMDIAM,122.5,mm,56,TA1
S0015,T01,LDIAM,56.2,mm,112,TA2
S0015,T02,LDIAM,41.9,mm,112,TA2
S0015,T03,LDIAM,32.0,mm,112,TA2
S0015,,SUMDIAM,130.1,mm,112,TA2
S0015,T01,LDIAM,56.2,mm,168,TA3
S0015,T02,LDIAM,41.9,mm,168,TA3
S0015,T03,LDIAM,32.0,mm,168,TA3
S0015,,SUMDIAM,130.1,mm,168,TA3
S0015,T01,LDIAM,56.2,mm,224,TA4
S0015,T02,LDIAM,41.9,mm,224,TA4
S0015,T03,LDIAM,32.0,mm,224,TA4
S0015,,SUMDIAM,130.1,mm,224,TA4
S0015,T01,LDIAM,56.2,mm,280,TA5
S0015,T02,LDIAM,41.9,mm,280,TA5
S0015,T03,LDIAM,32.0,mm,280,TA5
S0015,,SUMDIAM,130.1,mm,280,TA5
S0015,T01,LDIAM,56.2,mm,336,TA6
S0015,T02,LDIAM,41.9,mm,336,TA6
S0015,T03,LDIAM,32.0,mm,336,TA6
S0015,,SUMDIAM,130.1,mm,336,TA6
S0015,T01,LDIAM,56.2,mm,392,TA7
S0015,T02,LDIAM,41.9,mm,392,TA7
S0015,T03,LDIAM,32.0,mm,392,TA7
S0015,,SUMDIAM,130.1,mm,392,TA7
S0015,T01,LDIAM,56.2,mm,448,TA8
S0015,T02,LDIAM,41.9,mm,448,TA8
S0015,T03,LDIAM,32.0,mm,448,TA8
S0015,,SUMDIAM,130.1,mm,448,TA8
S0015,T01,LDIAM,62.1,mm,504,TA9
S0015,T02,LDIAM,46.2,mm,504,TA9
S0015,T03,LDIAM,35.4,mm,504,TA9
S0015,,SUMDIAM,143.8,mm,504,TA9
S0023,T01,LDIAM,44.3,mm,0,BASELINE
S0023,T02,LDIAM,52.7,mm,0,BASELINE
S0023,T03,LDIAM,45.9,mm,0,BASELINE
S0023,,SUMDIAM,142.9,mm,0,BASELINE
S0023,T01,LDIAM,39.9,mm,56,TA1
S0023,T02,LDIAM,47.5,mm,56,TA1
S0023,T03,LDIAM,41.3,mm,56,TA1
S0023,,SUMDIAM,128.7,mm,56,TA1
S0029,T01,LDIAM,24.5,mm,0,BASELINE
S0029,T02,LDIAM,31.8,mm,0,BASELINE
S0029,T03,LDIAM,13.4,mm,0,BASELINE
S0029,T04,LDIAM,31.8,mm,0,BASELINE
S0029,T05,LDIAM,42.9,mm,0,BASELINE
S0029,,SUMDIAM,144.4,mm,0,BASELINE
S0029,T01,LDIAM,16.8,mm,56,TA1
S0029,T02,LDIAM,21.8,mm,56,TA1
S0029,T03,LDIAM,9.2,mm,56,TA1
S0029,T04,LDIAM,21.8,mm,56,TA1
S0029,T05,LDIAM,29.4,mm,56,TA1
S0029,,SUMDIAM,99.0,mm,56,TA1
S0029,T01,LDIAM,9.1,mm,112,TA2
S0029,T02,LDIAM,11.8,mm,112,TA2
S0029,T03,LDIAM,5.0,mm,112,TA2
S0029,T04,LDIAM,11.8,mm,112,TA2
S0029,T05,LDIAM,16.0,mm,112,TA2
S0029,,SUMDIAM,53.7,mm,112,TA2
S0029,T01,LDIAM,9.1,mm,168,TA3
S0029,T02,LDIAM,11.8,mm,168,TA3
S0029,T03,LDIAM,5.0,mm,168,TA3
S0029,T04,LDIAM,11.8,mm,168,TA3
S0029,T05,LDIAM,16.0,mm,168,TA3
S0029,,SUMDIAM,53.7,mm,168,TA3
S0029,T01,LDIAM,9.1,mm,224,TA4
S0029,T02,LDIAM,11.8,mm,224,TA4
S0029,T03,LDIAM,5.0,mm,224,TA4
S0029,T04,LDIAM,11.8,mm,224,TA4
S0029,T05,LDIAM,16.0,mm,224,TA4
S0029,,SUMDIAM,53.7,mm,224,TA4
S0029,T01,LDIAM,9.1,mm,280,TA5
S0029,T02,LDIAM,11.8,mm,280,TA5
S0029,T03,LDIAM,5.0,mm,280,TA5
S0029,T04,LDIAM,11.8,mm,280,TA5
S0029,T05,LDIAM,16.0,mm,280,TA5
S0029,,SUMDIAM,53.7,mm,280,TA5
S0029,T01,LDIAM,9.1,mm,336,TA6
S0029,T02,LDIAM,11.8,mm,336,TA6
S0029,T03,LDIAM,5.0,mm,336,TA6
S0029,T04,LDIAM,11.8,mm,336,TA6
S0029,T05,LDIAM,16.0,mm,336,TA6
S0029,,SUMDIAM,53.7,mm,336,TA6
S0029,T01,LDIAM,9.1,mm,392,TA7
S0029,T02,LDIAM,11.8,mm,392,TA7
S0029,T03,LDIAM,5.0,mm,392,TA7
S0029,T04,LDIAM,11.8,mm,392,TA7
S0029,T05,LDIAM,16.0,mm,392,TA7
S0029,,SUMDIAM,53.7,mm,392,TA7
S0029,T01,LDIAM,9.1,mm,448,TA8
S0029,T02,LDIAM,11.8,mm,448,TA8
S0029,T03,LDIAM,5.0,mm,448,TA8
S0029,T04,LDIAM,11.8,mm,448,TA8
S0029,T05,LDIAM,16.0,mm,448,TA8
S0029,,SUMDIAM,53.7,mm,448,TA8
S0029,T01,LDIAM,9.1,mm,504,TA9
S0029,T02,LDIAM,11.8,mm,504,TA9
S0029,T03,LDIAM,5.0,mm,504,TA9
S0029,T04,LDIAM,11.8,mm,504,TA9
S0029,T05,LDIAM,16.0,mm,504,TA9
S0029,,SUMDIAM,53.7,mm,504,TA9
S0029,T01,LDIAM,9.1,mm,560,TA10
S0029,T02,LDIAM,11.8,mm,560,TA10
S0029,T03,LDIAM,5.0,mm,560,TA10
S0029,T04,LDIAM,11.8,mm,560,TA10
S0029,T05,LDIAM,16.0,mm,560,TA10
S0029,,SUMDIAM,53.7,mm,560,TA10
S0029,T01,LDIAM,9.1,mm,616,TA11
S0029,T02,LDIAM,11.8,mm,616,TA11
S0029,T03,LDIAM,5.0,mm,616,TA11
S0029,T04,LDIAM,11.8,mm,616,TA11
S0029,T05,LDIAM,16.0,mm,616,TA11
S0029,,SUMDIAM,53.7,mm,616,TA11
S0029,T01,LDIAM,9.1,mm,672,TA12
S0029,T02,LDIAM,11.8,mm,672,TA12
S0029,T03,LDIAM,5.0,mm,672,TA12
S0029,T04,LDIAM,11.8,mm,672,TA12
S0029,T05,LDIAM,16.0,mm,672,TA12
S0029,,SUMDIAM,53.7,mm,672,TA12
S0029,T01,LDIAM,9.1,mm,728,TA13
S0029,T02,LDIAM,11.8,mm,728,TA13
S0029,T03,LDIAM,5.0,mm,728,TA13
S0029,T04,LDIAM,11.8,mm,728,TA13
S0029,T05,LDIAM,16.0,mm,728,TA13
S0029,,SUMDIAM,53.7,mm,728,TA13
S0029,T01,LDIAM,9.1,mm,784,TA14
S0029,T02,LDIAM,11.8,mm,784,TA14
S0029,T03,LDIAM,5.0,mm,784,TA14
S0029,T04,LDIAM,11.8,mm,784,TA14
S0029,T05,LDIAM,16.0,mm,784,TA14
S0029,,SUMDIAM,53.7,mm,784,TA14
S0029,T01,LDIAM,9.1,mm,840,TA15
S0029,T02,LDIAM,11.8,mm,840,TA15
S0029,T03,LDIAM,5.0,mm,840,TA15
S0029,T04,LDIAM,11.8,mm,840,TA15
S0029,T05,LDIAM,16.0,mm,840,TA15
S0029,,SUMDIAM,53.7,mm,840,TA15
S0029,T01,LDIAM,9.1,mm,896,TA16
S0029,T02,LDIAM,11.8,mm,896,TA16
S0029,T03,LDIAM,5.0,mm,896,TA16
S0029,T04,LDIAM,11.8,mm,896,TA16
S0029,T05,LDIAM,16.0,mm,896,TA16
S0029,,SUMDIAM,53.7,mm,896,TA16
S0029,T01,LDIAM,9.1,mm,952,TA17
S0029,T02,LDIAM,11.8,mm,952,TA17
S0029,T03,LDIAM,5.0,mm,952,TA17
S0029,T04,LDIAM,11.8,mm,952,TA17
S0029,T05,LDIAM,16.0,mm,952,TA17
S0029,,SUMDIAM,53.7,mm,952,TA17
S0029,T01,LDIAM,9.1,mm,1008,TA18
S0029,T02,LDIAM,11.8,mm,1008,TA18
S0029,T03,LDIAM,5.0,mm,1008,TA18
S0029,T04,LDIAM,11.8,mm,1008,TA18
S0029,T05,LDIAM,16.0,mm,1008,TA18
S0029,,SUMDIAM,53.7,mm,1008,TA18
S0029,T01,LDIAM,9.1,mm,1064,TA19
S0029,T02,LDIAM,11.8,mm,1064,TA19
S0029,T03,LDIAM,5.0,mm,1064,TA19
S0029,T04,LDIAM,11.8,mm,1064,TA19
S0029,T05,LDIAM,16.0,mm,1064,TA19
S0029,,SUMDIAM,53.7,mm,1064,TA19
S0029,T01,LDIAM,9.1,mm,1120,TA20
S0029,T02,LDIAM,11.8,mm,1120,TA20
S0029,T03,LDIAM,5.0,mm,1120,TA20
S0029,T04,LDIAM,11.8,mm,1120,TA20
S0029,T05,LDIAM,16.0,mm,1120,TA20
S0029,,SUMDIAM,53.7,mm,1120,TA20
S0029,T01,LDIAM,9.1,mm,1176,TA21
S0029,T02,LDIAM,11.8,mm,1176,TA21
S0029,T03,LDIAM,5.0,mm,1176,TA21
S0029,T04,LDIAM,11.8,mm,1176,TA21
S0029,T05,LDIAM,16.0,mm,1176,TA21
S0029,,SUMDIAM,53.7,mm,1176,TA21
S0029,T01,LDIAM,9.1,mm,1232,TA22
S0029,T02,LDIAM,11.8,mm,1232,TA22
S0029,T03,LDIAM,5.0,mm,1232,TA22
S0029,T04,LDIAM,11.8,mm,1232,TA22
S0029,T05,LDIAM,16.0,mm,1232,TA22
S0029,,SUMDIAM,53.7,mm,1232,TA22
S0029,T01,LDIAM,12.2,mm,1288,TA23
S0029,T02,LDIAM,15.8,mm,1288,TA23
S0029,T03,LDIAM,6.6,mm,1288,TA23
S0029,T04,LDIAM,15.8,mm,1288,TA23
S0029,T05,LDIAM,21.3,mm,1288,TA23
S0029,,SUMDIAM,71.7,mm,1288,TA23
S0029,T01,LDIAM,12.2,mm,1344,TA24
S0029,T02,LDIAM,15.8,mm,1344,TA24
S0029,T03,LDIAM,6.6,mm,1344,TA24
S0029,T04,LDIAM,15.8,mm,1344,TA24
S0029,T05,LDIAM,21.3,mm,1344,TA24
S0029,,SUMDIAM,71.7,mm,1344,TA24
S0029,T01,LDIAM,12.2,mm,1400,TA25
S0029,T02,LDIAM,15.8,mm,1400,TA25
S0029,T03,LDIAM,6.6,mm,1400,TA25
S0029,T04,LDIAM,15.8,mm,1400,TA25
S0029,T05,LDIAM,21.3,mm,1400,TA25
S0029,,SUMDIAM,71.7,mm,1400,TA25
S0029,T01,LDIAM,12.2,mm,1456,TA26
S0029,T02,LDIAM,15.8,mm,1456,TA26
S0029,T03,LDIAM,6.6,mm,1456,TA26
S0029,T04,LDIAM,15.8,mm,1456,TA26
S0029,T05,LDIAM,21.3,mm,1456,TA26
S0029,,SUMDIAM,71.7,mm,1456,TA26
S0029,T01,LDIAM,12.2,mm,1512,TA27
S0029,T02,LDIAM,15.8,mm,1512,TA27
S0029,T03,LDIAM,6.6,mm,1512,TA27
S0029,T04,LDIAM,15.8,mm,1512,TA27
S0029,T05,LDIAM,21.3,mm,1512,TA27
S0029,,SUMDIAM,71.7,mm,1512,TA27
S0029,T01,LDIAM,12.2,mm,1568,TA28
S0029,T02,LDIAM,15.8,mm,1568,TA28
S0029,T03,LDIAM,6.6,mm,1568,TA28
S0029,T04,LDIAM,15.8,mm,1568,TA28
S0029,T05,LDIAM,21.3,mm,1568,TA28
S0029,,SUMDIAM,71.7,mm,1568,TA28
S0029,T01,LDIAM,12.2,mm,1624,TA29
S0029,T02,LDIAM,15.8,mm,1624,TA29
S0029,T03,LDIAM,6.6,mm,1624,TA29
S0029,T04,LDIAM,15.8,mm,1624,TA29
S0029,T05,LDIAM,21.3,mm,1624,TA29
S0029,,SUMDIAM,71.7,mm,1624,TA29
S0029,T01,LDIAM,12.2,mm,1680,TA30
S0029,T02,LDIAM,15.8,mm,1680,TA30
S0029,T03,LDIAM,6.6,mm,1680,TA30
S0029,T04,LDIAM,15.8,mm,1680,TA30
S0029,T05,LDIAM,21.3,mm,1680,TA30
S0029,,SUMDIAM,71.7,mm,1680,TA30
S0029,T01,LDIAM,12.2,mm,1736,TA31
S0029,T02,LDIAM,15.8,mm,1736,TA31
S0029,T03,LDIAM,6.6,mm,1736,TA31
S0029,T04,LDIAM,15.8,mm,1736,TA31
S0029,T05,LDIAM,21.3,mm,1736,TA31
S0029,,SUMDIAM,71.7,mm,1736,TA31
S0029,T01,LDIAM,12.2,mm,1792,TA32
S0029,T02,LDIAM,15.8,mm,1792,TA32
S0029,T03,LDIAM,6.6,mm,1792,TA32
S0029,T04,LDIAM,15.8,mm,1792,TA32
S0029,T05,LDIAM,21.3,mm,1792,TA32
S0029,,SUMDIAM,71.7,mm,1792,TA32
S0029,T01,LDIAM,12.2,mm,1848,TA33
S0029,T02,LDIAM,15.8,mm,1848,TA33
S0029,T03,LDIAM,6.6,mm,1848,TA33
S0029,T04,LDIAM,15.8,mm,1848,TA33
S0029,T05,LDIAM,21.3,mm,1848,TA33
S0029,,SUMDIAM,71.7,mm,1848,TA33
S0029,T01,LDIAM,12.2,mm,1904,TA34
S0029,T02,LDIAM,15.8,mm,1904,TA34
S0029,T03,LDIAM,6.6,mm,1904,TA34
S0029,T04,LDIAM,15.8,mm,1904,TA34
S0029,T05,LDIAM,21.3,mm,1904,TA34
S0029,,SUMDIAM,71.7,mm,1904,TA34
S0029,T01,LDIAM,12.2,mm,1960,TA35
S0029,T02,LDIAM,15.8,mm,1960,TA35
S0029,T03,LDIAM,6.6,mm,1960,TA35
S0029,T04,LDIAM,15.8,mm,1960,TA35
S0029,T05,LDIAM,21.3,mm,1960,TA35
S0029,,SUMDIAM,71.7,mm,1960,TA35
S0029,T01,LDIAM,12.2,mm,2016,TA36
S0029,T02,LDIAM,15.8,mm,2016,TA36
S0029,T03,LDIAM,6.6,mm,2016,TA36
S0029,T04,LDIAM,15.8,mm,2016,TA36
S0029,T05,LDIAM,21.3,mm,2016,TA36
S0029,,SUMDIAM,71.7,mm,2016,TA36
S0030,T01,LDIAM,25.5,mm,0,BASELINE
S0030,T02,LDIAM,51.3,mm,0,BASELINE
S0030,T03,LDIAM,18.0,mm,0,BASELINE
S0030,,SUMDIAM,94.8,mm,0,BASELINE
S0030,T01,LDIAM,14.0,mm,56,TA1
S0030,T02,LDIAM,28.2,mm,56,TA1
S0030,T03,LDIAM,9.9,mm,56,TA1
S0030,,SUMDIAM,52.1,mm,56,TA1
S0030,T01,LDIAM,2.5,mm,112,TA2
S0030,T02,LDIAM,5.0,mm,112,TA2
S0030,T03,LDIAM,1.8,mm,112,TA2
S0030,,SUMDIAM,9.3,mm,112,TA2
S0030,T01,LDIAM,2.5,mm,168,TA3
S0030,T02,LDIAM,5.0,mm,168,TA3
S0030,T03,LDIAM,1.8,mm,168,TA3
S0030,,SUMDIAM,9.3,mm,168,TA3
S0030,T01,LDIAM,2.5,mm,224,TA4
S0030,T02,LDIAM,5.0,mm,224,TA4
S0030,T03,LDIAM,1.8,mm,224,TA4
S0030,,SUMDIAM,9.3,mm,224,TA4
S0030,T01,LDIAM,2.5,mm,280,TA5
S0030,T02,LDIAM,5.0,mm,280,TA5
S0030,T03,LDIAM,1.8,mm,280,TA5
S0030,,SUMDIAM,9.3,mm,280,TA5
S0030,T01,LDIAM,2.5,mm,336,TA6
S0030,T02,LDIAM,5.0,mm,336,TA6
S0030,T03,LDIAM,1.8,mm,336,TA6
S0030,,SUMDIAM,9.3,mm,336,TA6
S0030,T01,LDIAM,2.5,mm,392,TA7
S0030,T02,LDIAM,5.0,mm,392,TA7
S0030,T03,LDIAM,1.8,mm,392,TA7
S0030,,SUMDIAM,9.3,mm,392,TA7
S0030,T01,LDIAM,2.5,mm,448,TA8
S0030,T02,LDIAM,5.0,mm,448,TA8
S0030,T03,LDIAM,1.8,mm,448,TA8
S0030,,SUMDIAM,9.3,mm,448,TA8
S0032,T01,LDIAM,22.5,mm,0,BASELINE
S0032,T02,LDIAM,43.9,mm,0,BASELINE
S0032,T03,LDIAM,56.2,mm,0,BASELINE
S0032,T04,LDIAM,41.6,mm,0,BASELINE
S0032,T05,LDIAM,52.1,mm,0,BASELINE
S0032,,SUMDIAM,216.3,mm,0,BASELINE
S0032,T01,LDIAM,19.1,mm,56,TA1
S0032,T02,LDIAM,37.2,mm,56,TA1
S0032,T03,LDIAM,47.6,mm,56,TA1
S0032,T04,LDIAM,35.2,mm,56,TA1
S0032,T05,LDIAM,44.1,mm,56,TA1
S0032,,SUMDIAM,183.3,mm,56,TA1
S0032,T01,LDIAM,15.6,mm,112,TA2
S0032,T02,LDIAM,30.5,mm,112,TA2
S0032,T03,LDIAM,39.0,mm,112,TA2
S0032,T04,LDIAM,28.9,mm,112,TA2
S0032,T05,LDIAM,36.2,mm,112,TA2
S0032,,SUMDIAM,150.3,mm,112,TA2
S0032,T01,LDIAM,19.9,mm,168,TA3
S0032,T02,LDIAM,38.8,mm,168,TA3
S0032,T03,LDIAM,49.7,mm,168,TA3
S0032,T04,LDIAM,36.8,mm,168,TA3
S0032,T05,LDIAM,46.0,mm,168,TA3
S0032,,SUMDIAM,191.2,mm,168,TA3
S0038,T01,LDIAM,16.3,mm,0,BASELINE
S0038,T02,LDIAM,30.3,mm,0,BASELINE
S0038,,SUMDIAM,46.6,mm,0,BASELINE
S0038,T01,LDIAM,12.8,mm,56,TA1
S0038,T02,LDIAM,23.9,mm,56,TA1
S0038,,SUMDIAM,36.7,mm,56,TA1
S0038,T01,LDIAM,9.4,mm,112,TA2
S0038,T02,LDIAM,17.4,mm,112,TA2
S0038,,SUMDIAM,26.8,mm,112,TA2
S0048,T01,LDIAM,28.7,mm,0,BASELINE
S0048,T02,LDIAM,13.7,mm,0,BASELINE
S0048,T03,LDIAM,18.5,mm,0,BASELINE
S0048,T04,LDIAM,59.3,mm,0,BASELINE
S0048,T05,LDIAM,17.4,mm,0,BASELINE
S0048,,SUMDIAM,137.6,mm,0,BASELINE
S0048,T01,LDIAM,15.6,mm,56,TA1
S0048,T02,LDIAM,7.4,mm,56,TA1
S0048,T03,LDIAM,10.0,mm,56,TA1
S0048,T04,LDIAM,32.2,mm,56,TA1
S0048,T05,LDIAM,9.4,mm,56,TA1
S0048,,SUMDIAM,74.7,mm,56,TA1
S0048,T01,LDIAM,2.5,mm,112,TA2
S0048,T02,LDIAM,1.2,mm,112,TA2
S0048,T03,LDIAM,1.6,mm,112,TA2
S0048,T04,LDIAM,5.1,mm,112,TA2
S0048,T05,LDIAM,1.5,mm,112,TA2
S0048,,SUMDIAM,11.8,mm,112,TA2
S0048,T01,LDIAM,2.5,mm,168,TA3
S0048,T02,LDIAM,1.2,mm,168,TA3
S0048,T03,LDIAM,1.6,mm,168,TA3
S0048,T04,LDIAM,5.1,mm,168,TA3
S0048,T05,LDIAM,1.5,mm,168,TA3
S0048,,SUMDIAM,11.8,mm,168,TA3
S0048,T01,LDIAM,2.5,mm,224,TA4
S0048,T02,LDIAM,1.2,mm,224,TA4
S0048,T03,LDIAM,1.6,mm,224,TA4
S0048,T04,LDIAM,5.1,mm,224,TA4
S0048,T05,LDIAM,1.5,mm,224,TA4
S0048,,SUMDIAM,11.8,mm,224,TA4
S0052,T01,LDIAM,52.9,mm,0,BASELINE
S0052,T02,LDIAM,35.0,mm,0,BASELINE
S0052,T03,LDIAM,31.4,mm,0,BASELINE
S0052,T04,LDIAM,42.6,mm,0,BASELINE
S0052,T05,LDIAM,50.3,mm,0,BASELINE
S0052,,SUMDIAM,212.2,mm,0,BASELINE
S0052,T01,LDIAM,46.8,mm,56,TA1
S0052,T02,LDIAM,31.0,mm,56,TA1
S0052,T03,LDIAM,27.8,mm,56,TA1
S0052,T04,LDIAM,37.7,mm,56,TA1
S0052,T05,LDIAM,44.5,mm,56,TA1
S0052,,SUMDIAM,187.7,mm,56,TA1
S0052,T01,LDIAM,40.7,mm,112,TA2
S0052,T02,LDIAM,26.9,mm,112,TA2
S0052,T03,LDIAM,24.2,mm,112,TA2
S0052,T04,LDIAM,32.8,mm,112,TA2
S0052,T05,LDIAM,38.7,mm,112,TA2
S0052,,SUMDIAM,163.3,mm,112,TA2
S0052,T01,LDIAM,40.7,mm,168,TA3
S0052,T02,LDIAM,26.9,mm,168,TA3
S0052,T03,LDIAM,24.2,mm,168,TA3
S0052,T04,LDIAM,32.8,mm,168,TA3
S0052,T05,LDIAM,38.7,mm,168,TA3
S0052,,SUMDIAM,163.3,mm,168,TA3
S0052,T01,LDIAM,40.7,mm,224,TA4
S0052,T02,LDIAM,26.9,mm,224,TA4
S0052,T03,LDIAM,24.2,mm,224,TA4
S0052,T04,LDIAM,32.8,mm,224,TA4
S0052,T05,LDIAM,38.7,mm,224,TA4
S0052,,SUMDIAM,163.3,mm,224,TA4
S0052,T01,LDIAM,40.7,mm,280,TA5
S0052,T02,LDIAM,26.9,mm,280,TA5
S0052,T03,LDIAM,24.2,mm,280,TA5
S0052,T04,LDIAM,32.8,mm,280,TA5
S0052,T05,LDIAM,38.7,mm,280,TA5
S0052,,SUMDIAM,163.3,mm,280,TA5
S0055,T01,LDIAM,12.6,mm,0,BASELINE
S0055,T02,LDIAM,55.5,mm,0,BASELINE
S0055,T03,LDIAM,55.9,mm,0,BASELINE
S0055,,SUMDIAM,124.0,mm,0,BASELINE
S0055,T01,LDIAM,7.6,mm,56,TA1
S0055,T02,LDIAM,33.7,mm,56,TA1
S0055,T03,LDIAM,33.9,mm,56,TA1
S0055,,SUMDIAM,75.2,mm,56,TA1
S0055,T01,LDIAM,2.7,mm,112,TA2
S0055,T02,LDIAM,11.8,mm,112,TA2
S0055,T03,LDIAM,11.9,mm,112,TA2
S0055,,SUMDIAM,26.4,mm,112,TA2
S0055,T01,LDIAM,2.7,mm,168,TA3
S0055,T02,LDIAM,11.8,mm,168,TA3
S0055,T03,LDIAM,11.9,mm,168,TA3
S0055,,SUMDIAM,26.4,mm,168,TA3
S0055,T01,LDIAM,2.7,mm,224,TA4
S0055,T02,LDIAM,11.8,mm,224,TA4
S0055,T03,LDIAM,11.9,mm,224,TA4
S0055,,SUMDIAM,26.4,mm,224,TA4
S0055,T01,LDIAM,2.7,mm,280,TA5
S0055,T02,LDIAM,11.8,mm,280,TA5
S0055,T03,LDIAM,11.9,mm,280,TA5
S0055,,SUMDIAM,26.4,mm,280,TA5
S0055,T01,LDIAM,2.7,mm,336,TA6
S0055,T02,LDIAM,11.8,mm,336,TA6
S0055,T03,LDIAM,11.9,mm,336,TA6
S0055,,SUMDIAM,26.4,mm,336,TA6
S0055,T01,LDIAM,2.7,mm,392,TA7
S0055,T02,LDIAM,11.8,mm,392,TA7
S0055,T03,LDIAM,11.9,mm,392,TA7
S0055,,SUMDIAM,26.4,mm,392,TA7
S0055,T01,LDIAM,2.7,mm,448,TA8
S0055,T02,LDIAM,11.8,mm,448,TA8
S0055,T03,LDIAM,11.9,mm,448,TA8
S0055,,SUMDIAM,26.4,mm,448,TA8
S0055,T01,LDIAM,2.7,mm,504,TA9
S0055,T02,LDIAM,11.8,mm,504,TA9
S0055,T03,LDIAM,11.9,mm,504,TA9
S0055,,SUMDIAM,26.4,mm,504,TA9
S0055,T01,LDIAM,2.7,mm,560,TA10
S0055,T02,LDIAM,11.8,mm,560,TA10
S0055,T03,LDIAM,11.9,mm,560,TA10
S0055,,SUMDIAM,26.4,mm,560,TA10
S0055,T01,LDIAM,3.8,mm,616,TA11
S0055,T02,LDIAM,17.0,mm,616,TA11
S0055,T03,LDIAM,17.1,mm,616,TA11
S0055,,SUMDIAM,37.9,mm,616,TA11
S0055,T01,LDIAM,3.8,mm,672,TA12
S0055,T02,LDIAM,17.0,mm,672,TA12
S0055,T03,LDIAM,17.1,mm,672,TA12
S0055,,SUMDIAM,37.9,mm,672,TA12
S0055,T01,LDIAM,3.8,mm,728,TA13
S0055,T02,LDIAM,17.0,mm,728,TA13
S0055,T03,LDIAM,17.1,mm,728,TA13
S0055,,SUMDIAM,37.9,mm,728,TA13
S0055,T01,LDIAM,3.8,mm,784,TA14
S0055,T02,LDIAM,17.0,mm,784,TA14
S0055,T03,LDIAM,17.1,mm,784,TA14
S0055,,SUMDIAM,37.9,mm,784,TA14
S0055,T01,LDIAM,3.8,mm,840,TA15
S0055,T02,LDIAM,17.0,mm,840,TA15
S0055,T03,LDIAM,17.1,mm,840,TA15
S0055,,SUMDIAM,37.9,mm,840,TA15
S0055,T01,LDIAM,3.8,mm,896,TA16
S0055,T02,LDIAM,17.0,mm,896,TA16
S0055,T03,LDIAM,17.1,mm,896,TA16
S0055,,SUMDIAM,37.9,mm,896,TA16
S0055,T01,LDIAM,3.8,mm,952,TA17
S0055,T02,LDIAM,17.0,mm,952,TA17
S0055,T03,LDIAM,17.1,mm,952,TA17
S0055,,SUMDIAM,37.9,mm,952,TA17
S0064,T01,LDIAM,25.7,mm,0,BASELINE
S0064,T02,LDIAM,49.6,mm,0,BASELINE
S0064,T03,LDIAM,30.2,mm,0,BASELINE
S0064,T04,LDIAM,12.9,mm,0,BASELINE
S0064,,SUMDIAM,118.4,mm,0,BASELINE
S0064,T01,LDIAM,32.1,mm,56,TA1
S0064,T02,LDIAM,62.0,mm,56,TA1
S0064,T03,LDIAM,37.8,mm,56,TA1
S0064,T04,LDIAM,16.1,mm,56,TA1
S0064,,SUMDIAM,148.0,mm,56,TA1
S0066,T01,LDIAM,13.8,mm,0,BASELINE
S0066,T02,LDIAM,33.2,mm,0,BASELINE
S0066,,SUMDIAM,47.0,mm,0,BASELINE
S0066,T01,LDIAM,11.1,mm,56,TA1
S0066,T02,LDIAM,26.6,mm,56,TA1
S0066,,SUMDIAM,37.7,mm,56,TA1
S0066,T01,LDIAM,8.4,mm,112,TA2
S0066,T02,LDIAM,20.1,mm,112,TA2
S0066,,SUMDIAM,28.4,mm,112,TA2
S0066,T01,LDIAM,8.4,mm,168,TA3
S0066,T02,LDIAM,20.1,mm,168,TA3
S0066,,SUMDIAM,28.4,mm,168,TA3
S0066,T01,LDIAM,8.4,mm,224,TA4
S0066,T02,LDIAM,20.1,mm,224,TA4
S0066,,SUMDIAM,28.4,mm,224,TA4
S0066,T01,LDIAM,8.4,mm,280,TA5
S0066,T02,LDIAM,20.1,mm,280,TA5
S0066,,SUMDIAM,28.4,mm,280,TA5
S0069,T01,LDIAM,25.6,mm,0,BASELINE
S0069,,SUMDIAM,25.6,mm,0,BASELINE
S0069,T01,LDIAM,20.6,mm,56,TA1
S0069,,SUMDIAM,20.6,mm,56,TA1
S0069,T01,LDIAM,15.7,mm,112,TA2
S0069,,SUMDIAM,15.7,mm,112,TA2
S0069,T01,LDIAM,15.7,mm,168,TA3
S0069,,SUMDIAM,15.7,mm,168,TA3
S0069,T01,LDIAM,15.7,mm,224,TA4
S0069,,SUMDIAM,15.7,mm,224,TA4
S0070,T01,LDIAM,32.3,mm,0,BASELINE
S0070,T02,LDIAM,24.3,mm,0,BASELINE
S0070,,SUMDIAM,56.6,mm,0,BASELINE
S0070,T01,LDIAM,28.1,mm,56,TA1
S0070,T02,LDIAM,21.2,mm,56,TA1
S0070,,SUMDIAM,49.3,mm,56,TA1
S0072,T01,LDIAM,40.4,mm,0,BASELINE
S0072,T02,LDIAM,42.7,mm,0,BASELINE
S0072,T03,LDIAM,35.5,mm,0,BASELINE
S0072,T04,LDIAM,11.7,mm,0,BASELINE
S0072,,SUMDIAM,130.3,mm,0,BASELINE
S0072,T01,LDIAM,37.1,mm,56,TA1
S0072,T02,LDIAM,39.2,mm,56,TA1
S0072,T03,LDIAM,32.6,mm,56,TA1
S0072,T04,LDIAM,10.7,mm,56,TA1
S0072,,SUMDIAM,119.5,mm,56,TA1
S0072,T01,LDIAM,33.7,mm,112,TA2
S0072,T02,LDIAM,35.6,mm,112,TA2
S0072,T03,LDIAM,29.6,mm,112,TA2
S0072,T04,LDIAM,9.8,mm,112,TA2
S0072,,SUMDIAM,108.7,mm,112,TA2
S0072,T01,LDIAM,33.7,mm,168,TA3
S0072,T02,LDIAM,35.6,mm,168,TA3
S0072,T03,LDIAM,29.6,mm,168,TA3
S0072,T04,LDIAM,9.8,mm,168,TA3
S0072,,SUMDIAM,108.7,mm,168,TA3
S0072,T01,LDIAM,33.7,mm,224,TA4
S0072,T02,LDIAM,35.6,mm,224,TA4
S0072,T03,LDIAM,29.6,mm,224,TA4
S0072,T04,LDIAM,9.8,mm,224,TA4
S0072,,SUMDIAM,108.7,mm,224,TA4
S0072,T01,LDIAM,33.7,mm,280,TA5
S0072,T02,LDIAM,35.6,mm,280,TA5
S0072,T03,LDIAM,29.6,mm,280,TA5
S0072,T04,LDIAM,9.8,mm,280,TA5
S0072,,SUMDIAM,108.7,mm,280,TA5
S0072,T01,LDIAM,33.7,mm,336,TA6
S0072,T02,LDIAM,35.6,mm,336,TA6
S0072,T03,LDIAM,29.6,mm,336,TA6
S0072,T04,LDIAM,9.8,mm,336,TA6
S0072,,SUMDIAM,108.7,mm,336,TA6
S0072,T01,LDIAM,33.7,mm,392,TA7
S0072,T02,LDIAM,35.6,mm,392,TA7
S0072,T03,LDIAM,29.6,mm,392,TA7
S0072,T04,LDIAM,9.8,mm,392,TA7
S0072,,SUMDIAM,108.7,mm,392,TA7
S0072,T01,LDIAM,42.5,mm,448,TA8
S0072,T02,LDIAM,44.9,mm,448,TA8
S0072,T03,LDIAM,37.3,mm,448,TA8
S0072,T04,LDIAM,12.3,mm,448,TA8
S0072,,SUMDIAM,137.0,mm,448,TA8
S0075,T01,LDIAM,54.0,mm,0,BASELINE
S0075,T02,LDIAM,42.5,mm,0,BASELINE
S0075,T03,LDIAM,37.1,mm,0,BASELINE
S0075,,SUMDIAM,133.6,mm,0,BASELINE
S0075,T01,LDIAM,32.5,mm,56,TA1
S0075,T02,LDIAM,25.5,mm,56,TA1
S0075,T03,LDIAM,22.3,mm,56,TA1
S0075,,SUMDIAM,80.3,mm,56,TA1
S0075,T01,LDIAM,41.6,mm,112,TA2
S0075,T02,LDIAM,32.8,mm,112,TA2
S0075,T03,LDIAM,28.6,mm,112,TA2
S0075,,SUMDIAM,103.0,mm,112,TA2
S0077,T01,LDIAM,49.8,mm,0,BASELINE
S0077,T02,LDIAM,36.2,mm,0,BASELINE
S0077,T03,LDIAM,45.5,mm,0,BASELINE
S0077,T04,LDIAM,35.3,mm,0,BASELINE
S0077,,SUMDIAM,166.8,mm,0,BASELINE
S0077,T01,LDIAM,45.9,mm,56,TA1
S0077,T02,LDIAM,33.4,mm,56,TA1
S0077,T03,LDIAM,41.9,mm,56,TA1
S0077,T04,LDIAM,32.5,mm,56,TA1
S0077,,SUMDIAM,153.8,mm,56,TA1
S0077,T01,LDIAM,42.0,mm,112,TA2
S0077,T02,LDIAM,30.5,mm,112,TA2
S0077,T03,LDIAM,38.4,mm,112,TA2
S0077,T04,LDIAM,29.8,mm,112,TA2
S0077,,SUMDIAM,140.7,mm,112,TA2
S0077,T01,LDIAM,52.9,mm,168,TA3
S0077,T02,LDIAM,38.5,mm,168,TA3
S0077,T03,LDIAM,48.3,mm,168,TA3
S0077,T04,LDIAM,37.5,mm,168,TA3
S0077,,SUMDIAM,177.2,mm,168,TA3
S0080,T01,LDIAM,40.3,mm,0,BASELINE
S0080,T02,LDIAM,33.7,mm,0,BASELINE
S0080,T03,LDIAM,18.9,mm,0,BASELINE
S0080,,SUMDIAM,92.9,mm,0,BASELINE
S0080,T01,LDIAM,31.8,mm,56,TA1
S0080,T02,LDIAM,26.6,mm,56,TA1
S0080,T03,LDIAM,14.9,mm,56,TA1
S0080,,SUMDIAM,73.4,mm,56,TA1
S0084,T01,LDIAM,16.8,mm,0,BASELINE
S0084,T02,LDIAM,39.8,mm,0,BASELINE
S0084,T03,LDIAM,45.6,mm,0,BASELINE
S0084,T04,LDIAM,49.1,mm,0,BASELINE
S0084,T05,LDIAM,19.3,mm,0,BASELINE
S0084,,SUMDIAM,170.6,mm,0,BASELINE
S0084,T01,LDIAM,11.3,mm,56,TA1
S0084,T02,LDIAM,26.7,mm,56,TA1
S0084,T03,LDIAM,30.6,mm,56,TA1
S0084,T04,LDIAM,33.0,mm,56,TA1
S0084,T05,LDIAM,13.0,mm,56,TA1
S0084,,SUMDIAM,114.6,mm,56,TA1
S0084,T01,LDIAM,5.8,mm,112,TA2
S0084,T02,LDIAM,13.7,mm,112,TA2
S0084,T03,LDIAM,15.7,mm,112,TA2
S0084,T04,LDIAM,16.9,mm,112,TA2
S0084,T05,LDIAM,6.6,mm,112,TA2
S0084,,SUMDIAM,58.6,mm,112,TA2
S0084,T01,LDIAM,5.8,mm,168,TA3
S0084,T02,LDIAM,13.7,mm,168,TA3
S0084,T03,LDIAM,15.7,mm,168,TA3
S0084,T04,LDIAM,16.9,mm,168,TA3
S0084,T05,LDIAM,6.6,mm,168,TA3
S0084,,SUMDIAM,58.6,mm,168,TA3
S0084,T01,LDIAM,5.8,mm,224,TA4
S0084,T02,LDIAM,13.7,mm,224,TA4
S0084,T03,LDIAM,15.7,mm,224,TA4
S0084,T04,LDIAM,16.9,mm,224,TA4
S0084,T05,LDIAM,6.6,mm,224,TA4
S0084,,SUMDIAM,58.6,mm,224,TA4
S0084,T01,LDIAM,7.8,mm,280,TA5
S0084,T02,LDIAM,18.4,mm,280,TA5
S0084,T03,LDIAM,21.1,mm,280,TA5
S0084,T04,LDIAM,22.7,mm,280,TA5
S0084,T05,LDIAM,8.9,mm,280,TA5
S0084,,SUMDIAM,78.8,mm,280,TA5
S0084,T01,LDIAM,7.8,mm,336,TA6
S0084,T02,LDIAM,18.4,mm,336,TA6
S0084,T03,LDIAM,21.1,mm,336,TA6
S0084,T04,LDIAM,22.7,mm,336,TA6
S0084,T05,LDIAM,8.9,mm,336,TA6
S0084,,SUMDIAM,78.8,mm,336,TA6
S0084,T01,LDIAM,7.8,mm,392,TA7
S0084,T02,LDIAM,18.4,mm,392,TA7
S0084,T03,LDIAM,21.1,mm,392,TA7
S0084,T04,LDIAM,22.7,mm,392,TA7
S0084,T05,LDIAM,8.9,mm,392,TA7
S0084,,SUMDIAM,78.8,mm,392,TA7
S0084,T01,LDIAM,7.8,mm,448,TA8
S0084,T02,LDIAM,18.4,mm,448,TA8
S0084,T03,LDIAM,21.1,mm,448,TA8
S0084,T04,LDIAM,22.7,mm,448,TA8
S0084,T05,LDIAM,8.9,mm,448,TA8
S0084,,SUMDIAM,78.8,mm,448,TA8
S0084,T01,LDIAM,7.8,mm,504,TA9
S0084,T02,LDIAM,18.4,mm,504,TA9
S0084,T03,LDIAM,21.1,mm,504,TA9
S0084,T04,LDIAM,22.7,mm,504,TA9
S0084,T05,LDIAM,8.9,mm,504,TA9
S0084,,SUMDIAM,78.8,mm,504,TA9
S0084,T01,LDIAM,7.8,mm,560,TA10
S0084,T02,LDIAM,18.4,mm,560,TA10
S0084,T03,LDIAM,21.1,mm,560,TA10
S0084,T04,LDIAM,22.7,mm,560,TA10
S0084,T05,LDIAM,8.9,mm,560,TA10
S0084,,SUMDIAM,78.8,mm,560,TA10
S0084,T01,LDIAM,7.8,mm,616,TA11
S0084,T02,LDIAM,18.4,mm,616,TA11
S0084,T03,LDIAM,21.1,mm,616,TA11
S0084,T04,LDIAM,22.7,mm,616,TA11
S0084,T05,LDIAM,8.9,mm,616,TA11
S0084,,SUMDIAM,78.8,mm,616,TA11
S0084,T01,LDIAM,7.8,mm,672,TA12
S0084,T02,LDIAM,18.4,mm,672,TA12
S0084,T03,LDIAM,21.1,mm,672,TA12
S0084,T04,LDIAM,22.7,mm,672,TA12
S0084,T05,LDIAM,8.9,mm,672,TA12
S0084,,SUMDIAM,78.8,mm,672,TA12
S0085,T01,LDIAM,12.9,mm,0,BASELINE
S0085,T02,LDIAM,49.8,mm,0,BASELINE
S0085,,SUMDIAM,62.7,mm,0,BASELINE
S0085,T01,LDIAM,9.0,mm,56,TA1
S0085,T02,LDIAM,34.8,mm,56,TA1
S0085,,SUMDIAM,43.8,mm,56,TA1
S0089,T01,LDIAM,34.9,mm,0,BASELINE
S0089,T02,LDIAM,55.3,mm,0,BASELINE
S0089,T03,LDIAM,44.9,mm,0,BASELINE
S0089,,SUMDIAM,135.1,mm,0,BASELINE
S0089,T01,LDIAM,36.9,mm,56,TA1
S0089,T02,LDIAM,58.4,mm,56,TA1
S0089,T03,LDIAM,47.4,mm,56,TA1
S0089,,SUMDIAM,142.7,mm,56,TA1
S0089,T01,LDIAM,43.6,mm,112,TA2
S0089,T02,LDIAM,69.1,mm,112,TA2
S0089,T03,LDIAM,56.1,mm,112,TA2
S0089,,SUMDIAM,168.9,mm,112,TA2
S0090,T01,LDIAM,44.0,mm,0,BASELINE
S0090,T02,LDIAM,58.8,mm,0,BASELINE
S0090,T03,LDIAM,58.5,mm,0,BASELINE
S0090,T04,LDIAM,42.8,mm,0,BASELINE
S0090,,SUMDIAM,204.1,mm,0,BASELINE
S0090,T01,LDIAM,30.4,mm,56,TA1
S0090,T02,LDIAM,40.7,mm,56,TA1
S0090,T03,LDIAM,40.5,mm,56,TA1
S0090,T04,LDIAM,29.6,mm,56,TA1
S0090,,SUMDIAM,141.1,mm,56,TA1
S0090,T01,LDIAM,16.9,mm,112,TA2
S0090,T02,LDIAM,22.5,mm,112,TA2
S0090,T03,LDIAM,22.4,mm,112,TA2
S0090,T04,LDIAM,16.4,mm,112,TA2
S0090,,SUMDIAM,78.2,mm,112,TA2
S0090,T01,LDIAM,16.9,mm,168,TA3
S0090,T02,LDIAM,22.5,mm,168,TA3
S0090,T03,LDIAM,22.4,mm,168,TA3
S0090,T04,LDIAM,16.4,mm,168,TA3
S0090,,SUMDIAM,78.2,mm,168,TA3
S0090,T01,LDIAM,16.9,mm,224,TA4
S0090,T02,LDIAM,22.5,mm,224,TA4
S0090,T03,LDIAM,22.4,mm,224,TA4
S0090,T04,LDIAM,16.4,mm,224,TA4
S0090,,SUMDIAM,78.2,mm,224,TA4
S0090,T01,LDIAM,16.9,mm,280,TA5
S0090,T02,LDIAM,22.5,mm,280,TA5
S0090,T03,LDIAM,22.4,mm,280,TA5
S0090,T04,LDIAM,16.4,mm,280,TA5
S0090,,SUMDIAM,78.2,mm,280,TA5
S0092,T01,LDIAM,27.1,mm,0,BASELINE
S0092,T02,LDIAM,23.1,mm,0,BASELINE
S0092,T03,LDIAM,52.0,mm,0,BASELINE
S0092,T04,LDIAM,50.2,mm,0,BASELINE
S0092,,SUMDIAM,152.4,mm,0,BASELINE
S0092,T01,LDIAM,23.5,mm,56,TA1
S0092,T02,LDIAM,20.0,mm,56,TA1
S0092,T03,LDIAM,45.1,mm,56,TA1
S0092,T04,LDIAM,43.5,mm,56,TA1
S0092,,SUMDIAM,132.1,mm,56,TA1
S0092,T01,LDIAM,19.9,mm,112,TA2
S0092,T02,LDIAM,16.9,mm,112,TA2
S0092,T03,LDIAM,38.1,mm,112,TA2
S0092,T04,LDIAM,36.8,mm,112,TA2
S0092,,SUMDIAM,111.7,mm,112,TA2
S0092,T01,LDIAM,19.9,mm,168,TA3
S0092,T02,LDIAM,16.9,mm,168,TA3
S0092,T03,LDIAM,38.1,mm,168,TA3
S0092,T04,LDIAM,36.8,mm,168,TA3
S0092,,SUMDIAM,111.7,mm,168,TA3
S0092,T01,LDIAM,19.9,mm,224,TA4
S0092,T02,LDIAM,16.9,mm,224,TA4
S0092,T03,LDIAM,38.1,mm,224,TA4
S0092,T04,LDIAM,36.8,mm,224,TA4
S0092,,SUMDIAM,111.7,mm,224,TA4
S0092,T01,LDIAM,19.9,mm,280,TA5
S0092,T02,LDIAM,16.9,mm,280,TA5
S0092,T03,LDIAM,38.1,mm,280,TA5
S0092,T04,LDIAM,36.8,mm,280,TA5
S0092,,SUMDIAM,111.7,mm,280,TA5
S0092,T01,LDIAM,19.9,mm,336,TA6
S0092,T02,LDIAM,16.9,mm,336,TA6
S0092,T03,LDIAM,38.1,mm,336,TA6
S0092,T04,LDIAM,36.8,mm,336,TA6
S0092,,SUMDIAM,111.7,mm,336,TA6
S0092,T01,LDIAM,19.9,mm,392,TA7
S0092,T02,LDIAM,16.9,mm,392,TA7
S0092,T03,LDIAM,38.1,mm,392,TA7
S0092,T04,LDIAM,36.8,mm,392,TA7
S0092,,SUMDIAM,111.7,mm,392,TA7
S0092,T01,LDIAM,19.9,mm,448,TA8
S0092,T02,LDIAM,16.9,mm,448,TA8
S0092,T03,LDIAM,38.1,mm,448,TA8
S0092,T04,LDIAM,36.8,mm,448,TA8
S0092,,SUMDIAM,111.7,mm,448,TA8
S0105,T01,LDIAM,20.4,mm,0,BASELINE
S0105,T02,LDIAM,38.9,mm,0,BASELINE
S0105,,SUMDIAM,59.3,mm,0,BASELINE
S0105,T01,LDIAM,21.5,mm,56,TA1
S0105,T02,LDIAM,41.0,mm,56,TA1
S0105,,SUMDIAM,62.5,mm,56,TA1
S0105,T01,LDIAM,22.6,mm,112,TA2
S0105,T02,LDIAM,43.1,mm,112,TA2
S0105,,SUMDIAM,65.7,mm,112,TA2
S0105,T01,LDIAM,22.6,mm,168,TA3
S0105,T02,LDIAM,43.1,mm,168,TA3
S0105,,SUMDIAM,65.7,mm,168,TA3
S0105,T01,LDIAM,22.6,mm,224,TA4
S0105,T02,LDIAM,43.1,mm,224,TA4
S0105,,SUMDIAM,65.7,mm,224,TA4
S0105,T01,LDIAM,25.5,mm,280,TA5
S0105,T02,LDIAM,48.6,mm,280,TA5
S0105,,SUMDIAM,74.1,mm,280,TA5
S0106,T01,LDIAM,10.1,mm,0,BASELINE
S0106,T02,LDIAM,43.9,mm,0,BASELINE
S0106,T03,LDIAM,30.4,mm,0,BASELINE
S0106,T04,LDIAM,14.9,mm,0,BASELINE
S0106,,SUMDIAM,99.3,mm,0,BASELINE
S0106,T01,LDIAM,7.9,mm,56,TA1
S0106,T02,LDIAM,34.4,mm,56,TA1
S0106,T03,LDIAM,23.8,mm,56,TA1
S0106,T04,LDIAM,11.7,mm,56,TA1
S0106,,SUMDIAM,77.8,mm,56,TA1
S0106,T01,LDIAM,5.7,mm,112,TA2
S0106,T02,LDIAM,24.9,mm,112,TA2
S0106,T03,LDIAM,17.2,mm,112,TA2
S0106,T04,LDIAM,8.4,mm,112,TA2
S0106,,SUMDIAM,56.2,mm,112,TA2
S0106,T01,LDIAM,5.7,mm,168,TA3
S0106,T02,LDIAM,24.9,mm,168,TA3
S0106,T03,LDIAM,17.2,mm,168,TA3
S0106,T04,LDIAM,8.4,mm,168,TA3
S0106,,SUMDIAM,56.2,mm,168,TA3
S0106,T01,LDIAM,5.7,mm,224,TA4
S0106,T02,LDIAM,24.9,mm,224,TA4
S0106,T03,LDIAM,17.2,mm,224,TA4
S0106,T04,LDIAM,8.4,mm,224,TA4
S0106,,SUMDIAM,56.2,mm,224,TA4
S0106,T01,LDIAM,5.7,mm,280,TA5
S0106,T02,LDIAM,24.9,mm,280,TA5
S0106,T03,LDIAM,17.2,mm,280,TA5
S0106,T04,LDIAM,8.4,mm,280,TA5
S0106,,SUMDIAM,56.2,mm,280,TA5
S0106,T01,LDIAM,5.7,mm,336,TA6
S0106,T02,LDIAM,24.9,mm,336,TA6
S0106,T03,LDIAM,17.2,mm,336,TA6
S0106,T04,LDIAM,8.4,mm,336,TA6
S0106,,SUMDIAM,56.2,mm,336,TA6
S0106,T01,LDIAM,5.7,mm,392,TA7
S0106,T02,LDIAM,24.9,mm,392,TA7
S0106,T03,LDIAM,17.2,mm,392,TA7
S0106,T04,LDIAM,8.4,mm,392,TA7
S0106,,SUMDIAM,56.2,mm,392,TA7
S0106,T01,LDIAM,5.7,mm,448,TA8
S0106,T02,LDIAM,24.9,mm,448,TA8
S0106,T03,LDIAM,17.2,mm,448,TA8
S0106,T04,LDIAM,8.4,mm,448,TA8
S0106,,SUMDIAM,56.2,mm,448,TA8
S0106,T01,LDIAM,5.7,mm,504,TA9
S0106,T02,LDIAM,24.9,mm,504,TA9
S0106,T03,LDIAM,17.2,mm,504,TA9
S0106,T04,LDIAM,8.4,mm,504,TA9
S0106,,SUMDIAM,56.2,mm,504,TA9
S0106,T01,LDIAM,5.7,mm,560,TA10
S0106,T02,LDIAM,24.9,mm,560,TA10
S0106,T03,LDIAM,17.2,mm,560,TA10
S0106,T04,LDIAM,8.4,mm,560,TA10
S0106,,SUMDIAM,56.2,mm,560,TA10
S0106,T01,LDIAM,5.7,mm,616,TA11
S0106,T02,LDIAM,24.9,mm,616,TA11
S0106,T03,LDIAM,17.2,mm,616,TA11
S0106,T04,LDIAM,8.4,mm,616,TA11
S0106,,SUMDIAM,56.2,mm,616,TA11
S0106,T01,LDIAM,5.7,mm,672,TA12
S0106,T02,LDIAM,24.9,mm,672,TA12
S0106,T03,LDIAM,17.2,mm,672,TA12
S0106,T04,LDIAM,8.4,mm,672,TA12
S0106,,SUMDIAM,56.2,mm,672,TA12
S0106,T01,LDIAM,5.7,mm,728,TA13
S0106,T02,LDIAM,24.9,mm,728,TA13
S0106,T03,LDIAM,17.2,mm,728,TA13
S0106,T04,LDIAM,8.4,mm,728,TA13
S0106,,SUMDIAM,56.2,mm,728,TA13
S0106,T01,LDIAM,5.7,mm,784,TA14
S0106,T02,LDIAM,24.9,mm,784,TA14
S0106,T03,LDIAM,17.2,mm,784,TA14
S0106,T04,LDIAM,8.4,mm,784,TA14
S0106,,SUMDIAM,56.2,mm,784,TA14
S0106,T01,LDIAM,5.7,mm,840,TA15
S0106,T02,LDIAM,24.9,mm,840,TA15
S0106,T03,LDIAM,17.2,mm,840,TA15
S0106,T04,LDIAM,8.4,mm,840,TA15
S0106,,SUMDIAM,56.2,mm,840,TA15
S0106,T01,LDIAM,5.7,mm,896,TA16
S0106,T02,LDIAM,24.9,mm,896,TA16
S0106,T03,LDIAM,17.2,mm,896,TA16
S0106,T04,LDIAM,8.4,mm,896,TA16
S0106,,SUMDIAM,56.2,mm,896,TA16
S0106,T01,LDIAM,5.7,mm,952,TA17
S0106,T02,LDIAM,24.9,mm,952,TA17
S0106,T03,LDIAM,17.2,mm,952,TA17
S0106,T04,LDIAM,8.4,mm,952,TA17
S0106,,SUMDIAM,56.2,mm,952,TA17
S0106,T01,LDIAM,5.7,mm,1008,TA18
S0106,T02,LDIAM,24.9,mm,1008,TA18
S0106,T03,LDIAM,17.2,mm,1008,TA18
S0106,T04,LDIAM,8.4,mm,1008,TA18
S0106,,SUMDIAM,56.2,mm,1008,TA18
S0106,T01,LDIAM,5.7,mm,1064,TA19
S0106,T02,LDIAM,24.9,mm,1064,TA19
S0106,T03,LDIAM,17.2,mm,1064,TA19
S0106,T04,LDIAM,8.4,mm,1064,TA19
S0106,,SUMDIAM,56.2,mm,1064,TA19
S0106,T01,LDIAM,5.7,mm,1120,TA20
S0106,T02,LDIAM,24.9,mm,1120,TA20
S0106,T03,LDIAM,17.2,mm,1120,TA20
S0106,T04,LDIAM,8.4,mm,1120,TA20
S0106,,SUMDIAM,56.2,mm,1120,TA20
S0106,T01,LDIAM,5.7,mm,1176,TA21
S0106,T02,LDIAM,24.9,mm,1176,TA21
S0106,T03,LDIAM,17.2,mm,1176,TA21
S0106,T04,LDIAM,8.4,mm,1176,TA21
S0106,,SUMDIAM,56.2,mm,1176,TA21
S0106,T01,LDIAM,5.7,mm,1232,TA22
S0106,T02,LDIAM,24.9,mm,1232,TA22
S0106,T03,LDIAM,17.2,mm,1232,TA22
S0106,T04,LDIAM,8.4,mm,1232,TA22
S0106,,SUMDIAM,56.2,mm,1232,TA22
S0106,T01,LDIAM,5.7,mm,1288,TA23
S0106,T02,LDIAM,24.9,mm,1288,TA23
S0106,T03,LDIAM,17.2,mm,1288,TA23
S0106,T04,LDIAM,8.4,mm,1288,TA23
S0106,,SUMDIAM,56.2,mm,1288,TA23
S0106,T01,LDIAM,5.7,mm,1344,TA24
S0106,T02,LDIAM,24.9,mm,1344,TA24
S0106,T03,LDIAM,17.2,mm,1344,TA24
S0106,T04,LDIAM,8.4,mm,1344,TA24
S0106,,SUMDIAM,56.2,mm,1344,TA24
S0106,T01,LDIAM,5.7,mm,1400,TA25
S0106,T02,LDIAM,24.9,mm,1400,TA25
S0106,T03,LDIAM,17.2,mm,1400,TA25
S0106,T04,LDIAM,8.4,mm,1400,TA25
S0106,,SUMDIAM,56.2,mm,1400,TA25
S0106,T01,LDIAM,5.7,mm,1456,TA26
S0106,T02,LDIAM,24.9,mm,1456,TA26
S0106,T03,LDIAM,17.2,mm,1456,TA26
S0106,T04,LDIAM,8.4,mm,1456,TA26
S0106,,SUMDIAM,56.2,mm,1456,TA26
S0106,T01,LDIAM,5.7,mm,1512,TA27
S0106,T02,LDIAM,24.9,mm,1512,TA27
S0106,T03,LDIAM,17.2,mm,1512,TA27
S0106,T04,LDIAM,8.4,mm,1512,TA27
S0106,,SUMDIAM,56.2,mm,1512,TA27
S0106,T01,LDIAM,5.7,mm,1568,TA28
S0106,T02,LDIAM,24.9,mm,1568,TA28
S0106,T03,LDIAM,17.2,mm,1568,TA28
S0106,T04,LDIAM,8.4,mm,1568,TA28
S0106,,SUMDIAM,56.2,mm,1568,TA28
S0106,T01,LDIAM,5.7,mm,1624,TA29
S0106,T02,LDIAM,24.9,mm,1624,TA29
S0106,T03,LDIAM,17.2,mm,1624,TA29
S0106,T04,LDIAM,8.4,mm,1624,TA29
S0106,,SUMDIAM,56.2,mm,1624,TA29
S0106,T01,LDIAM,5.7,mm,1680,TA30
S0106,T02,LDIAM,24.9,mm,1680,TA30
S0106,T03,LDIAM,17.2,mm,1680,TA30
S0106,T04,LDIAM,8.4,mm,1680,TA30
S0106,,SUMDIAM,56.2,mm,1680,TA30
S0106,T01,LDIAM,5.7,mm,1736,TA31
S0106,T02,LDIAM,24.9,mm,1736,TA31
S0106,T03,LDIAM,17.2,mm,1736,TA31
S0106,T04,LDIAM,8.4,mm,1736,TA31
S0106,,SUMDIAM,56.2,mm,1736,TA31
S0106,T01,LDIAM,5.7,mm,1792,TA32
S0106,T02,LDIAM,24.9,mm,1792,TA32
S0106,T03,LDIAM,17.2,mm,1792,TA32
S0106,T04,LDIAM,8.4,mm,1792,TA32
S0106,,SUMDIAM,56.2,mm,1792,TA32
S0106,T01,LDIAM,5.7,mm,1848,TA33
S0106,T02,LDIAM,24.9,mm,1848,TA33
S0106,T03,LDIAM,17.2,mm,1848,TA33
S0106,T04,LDIAM,8.4,mm,1848,TA33
S0106,,SUMDIAM,56.2,mm,1848,TA33
S0106,T01,LDIAM,5.7,mm,1904,TA34
S0106,T02,LDIAM,24.9,mm,1904,TA34
S0106,T03,LDIAM,17.2,mm,1904,TA34
S0106,T04,LDIAM,8.4,mm,1904,TA34
S0106,,SUMDIAM,56.2,mm,1904,TA34
S0106,T01,LDIAM,7.4,mm,1960,TA35
S0106,T02,LDIAM,32.0,mm,1960,TA35
S0106,T03,LDIAM,22.2,mm,1960,TA35
S0106,T04,LDIAM,10.9,mm,1960,TA35
S0106,,SUMDIAM,72.4,mm,1960,TA35
S0109,T01,LDIAM,29.5,mm,0,BASELINE
S0109,T02,LDIAM,29.0,mm,0,BASELINE
S0109,T03,LDIAM,30.4,mm,0,BASELINE
S0109,T04,LDIAM,40.7,mm,0,BASELINE
S0109,,SUMDIAM,129.6,mm,0,BASELINE
S0109,T01,LDIAM,32.3,mm,56,TA1
S0109,T02,LDIAM,31.7,mm,56,TA1
S0109,T03,LDIAM,33.2,mm,56,TA1
S0109,T04,LDIAM,44.5,mm,56,TA1
S0109,,SUMDIAM,141.7,mm,56,TA1
S0110,T01,LDIAM,36.4,mm,0,BASELINE
S0110,T02,LDIAM,18.4,mm,0,BASELINE
S0110,T03,LDIAM,17.3,mm,0,BASELINE
S0110,T04,LDIAM,10.7,mm,0,BASELINE
S0110,T05,LDIAM,32.6,mm,0,BASELINE
S0110,,SUMDIAM,115.4,mm,0,BASELINE
S0119,T01,LDIAM,14.3,mm,0,BASELINE
S0119,T02,LDIAM,18.7,mm,0,BASELINE
S0119,T03,LDIAM,54.6,mm,0,BASELINE
S0119,T04,LDIAM,22.4,mm,0,BASELINE
S0119,,SUMDIAM,110.0,mm,0,BASELINE
S0119,T01,LDIAM,10.8,mm,56,TA1
S0119,T02,LDIAM,14.1,mm,56,TA1
S0119,T03,LDIAM,41.1,mm,56,TA1
S0119,T04,LDIAM,16.9,mm,56,TA1
S0119,,SUMDIAM,82.8,mm,56,TA1
S0119,T01,LDIAM,13.6,mm,112,TA2
S0119,T02,LDIAM,17.8,mm,112,TA2
S0119,T03,LDIAM,52.0,mm,112,TA2
S0119,T04,LDIAM,21.4,mm,112,TA2
S0119,,SUMDIAM,104.9,mm,112,TA2
S0120,T01,LDIAM,14.3,mm,0,BASELINE
S0120,T02,LDIAM,22.7,mm,0,BASELINE
S0120,T03,LDIAM,49.3,mm,0,BASELINE
S0120,T04,LDIAM,41.6,mm,0,BASELINE
S0120,T05,LDIAM,31.6,mm,0,BASELINE
S0120,,SUMDIAM,159.5,mm,0,BASELINE
S0120,T01,LDIAM,8.1,mm,56,TA1
S0120,T02,LDIAM,12.9,mm,56,TA1
S0120,T03,LDIAM,27.9,mm,56,TA1
S0120,T04,LDIAM,23.6,mm,56,TA1
S0120,T05,LDIAM,17.9,mm,56,TA1
S0120,,SUMDIAM,90.4,mm,56,TA1
S0120,T01,LDIAM,1.9,mm,112,TA2
S0120,T02,LDIAM,3.0,mm,112,TA2
S0120,T03,LDIAM,6.6,mm,112,TA2
S0120,T04,LDIAM,5.6,mm,112,TA2
S0120,T05,LDIAM,4.2,mm,112,TA2
S0120,,SUMDIAM,21.3,mm,112,TA2
S0125,T01,LDIAM,21.1,mm,0,BASELINE
S0125,,SUMDIAM,21.1,mm,0,BASELINE
S0125,T01,LDIAM,10.6,mm,56,TA1
S0125,,SUMDIAM,10.6,mm,56,TA1
S0125,T01,LDIAM,0.0,mm,112,TA2
S0125,,SUMDIAM,0.0,mm,112,TA2
S0125,T01,LDIAM,0.0,mm,168,TA3
S0125,,SUMDIAM,0.0,mm,168,TA3
S0125,T01,LDIAM,0.0,mm,224,TA4
S0125,,SUMDIAM,0.0,mm,224,TA4
S0125,T01,LDIAM,0.0,mm,280,TA5
S0125,,SUMDIAM,0.0,mm,280,TA5
S0130,T01,LDIAM,30.2,mm,0,BASELINE
S0130,T02,LDIAM,35.1,mm,0,BASELINE
S0130,T03,LDIAM,58.1,mm,0,BASELINE
S0130,T04,LDIAM,42.7,mm,0,BASELINE
S0130,T05,LDIAM,47.4,mm,0,BASELINE
S0130,,SUMDIAM,213.5,mm,0,BASELINE
S0130,T01,LDIAM,26.5,mm,56,TA1
S0130,T02,LDIAM,30.8,mm,56,TA1
S0130,T03,LDIAM,51.0,mm,56,TA1
S0130,T04,LDIAM,37.5,mm,56,TA1
S0130,T05,LDIAM,41.6,mm,56,TA1
S0130,,SUMDIAM,187.6,mm,56,TA1
S0130,T01,LDIAM,22.9,mm,112,TA2
S0130,T02,LDIAM,26.6,mm,112,TA2
S0130,T03,LDIAM,44.0,mm,112,TA2
S0130,T04,LDIAM,32.3,mm,112,TA2
S0130,T05,LDIAM,35.9,mm,112,TA2
S0130,,SUMDIAM,161.7,mm,112,TA2
S0130,T01,LDIAM,22.9,mm,168,TA3
S0130,T02,LDIAM,26.6,mm,168,TA3
S0130,T03,LDIAM,44.0,mm,168,TA3
S0130,T04,LDIAM,32.3,mm,168,TA3
S0130,T05,LDIAM,35.9,mm,168,TA3
S0130,,SUMDIAM,161.7,mm,168,TA3
S0130,T01,LDIAM,22.9,mm,224,TA4
S0130,T02,LDIAM,26.6,mm,224,TA4
S0130,T03,LDIAM,44.0,mm,224,TA4
S0130,T04,LDIAM,32.3,mm,224,TA4
S0130,T05,LDIAM,35.9,mm,224,TA4
S0130,,SUMDIAM,161.7,mm,224,TA4
S0130,T01,LDIAM,22.9,mm,280,TA5
S0130,T02,LDIAM,26.6,mm,280,TA5
S0130,T03,LDIAM,44.0,mm,280,TA5
S0130,T04,LDIAM,32.3,mm,280,TA5
S0130,T05,LDIAM,35.9,mm,280,TA5
S0130,,SUMDIAM,161.7,mm,280,TA5
S0130,T01,LDIAM,22.9,mm,336,TA6
S0130,T02,LDIAM,26.6,mm,336,TA6
S0130,T03,LDIAM,44.0,mm,336,TA6
S0130,T04,LDIAM,32.3,mm,336,TA6
S0130,T05,LDIAM,35.9,mm,336,TA6
S0130,,SUMDIAM,161.7,mm,336,TA6
S0130,T01,LDIAM,22.9,mm,392,TA7
S0130,T02,LDIAM,26.6,mm,392,TA7
S0130,T03,LDIAM,44.0,mm,392,TA7
S0130,T04,LDIAM,32.3,mm,392,TA7
S0130,T05,LDIAM,35.9,mm,392,TA7
S0130,,SUMDIAM,161.7,mm,392,TA7
S0130,T01,LDIAM,22.9,mm,448,TA8
S0130,T02,LDIAM,26.6,mm,448,TA8
S0130,T03,LDIAM,44.0,mm,448,TA8
S0130,T04,LDIAM,32.3,mm,448,TA8
S0130,T05,LDIAM,35.9,mm,448,TA8
S0130,,SUMDIAM,161.7,mm,448,TA8
S0130,T01,LDIAM,22.9,mm,504,TA9
S0130,T02,LDIAM,26.6,mm,504,TA9
S0130,T03,LDIAM,44.0,mm,504,TA9
S0130,T04,LDIAM,32.3,mm,504,TA9
S0130,T05,LDIAM,35.9,mm,504,TA9
S0130,,SUMDIAM,161.7,mm,504,TA9
S0130,T01,LDIAM,22.9,mm,560,TA10
S0130,T02,LDIAM,26.6,mm,560,TA10
S0130,T03,LDIAM,44.0,mm,560,TA10
S0130,T04,LDIAM,32.3,mm,560,TA10
S0130,T05,LDIAM,35.9,mm,560,TA10
S0130,,SUMDIAM,161.7,mm,560,TA10
S0130,T01,LDIAM,22.9,mm,616,TA11
S0130,T02,LDIAM,26.6,mm,616,TA11
S0130,T03,LDIAM,44.0,mm,616,TA11
S0130,T04,LDIAM,32.3,mm,616,TA11
S0130,T05,LDIAM,35.9,mm,616,TA11
S0130,,SUMDIAM,161.7,mm,616,TA11
S0138,T01,LDIAM,23.5,mm,0,BASELINE
S0138,T02,LDIAM,13.2,mm,0,BASELINE
S0138,T03,LDIAM,27.4,mm,0,BASELINE
S0138,,SUMDIAM,64.1,mm,0,BASELINE
S0138,T01,LDIAM,16.3,mm,56,TA1
S0138,T02,LDIAM,9.1,mm,56,TA1
S0138,T03,LDIAM,19.0,mm,56,TA1
S0138,,SUMDIAM,44.4,mm,56,TA1
S0138,T01,LDIAM,9.0,mm,112,TA2
S0138,T02,LDIAM,5.1,mm,112,TA2
S0138,T03,LDIAM,10.6,mm,112,TA2
S0138,,SUMDIAM,24.7,mm,112,TA2
S0138,T01,LDIAM,9.0,mm,168,TA3
S0138,T02,LDIAM,5.1,mm,168,TA3
S0138,T03,LDIAM,10.6,mm,168,TA3
S0138,,SUMDIAM,24.7,mm,168,TA3
S0138,T01,LDIAM,9.0,mm,224,TA4
S0138,T02,LDIAM,5.1,mm,224,TA4
S0138,T03,LDIAM,10.6,mm,224,TA4
S0138,,SUMDIAM,24.7,mm,224,TA4
S0148,T01,LDIAM,29.0,mm,0,BASELINE
S0148,T02,LDIAM,52.0,mm,0,BASELINE
S0148,T03,LDIAM,45.1,mm,0,BASELINE
S0148,T04,LDIAM,46.3,mm,0,BASELINE
S0148,,SUMDIAM,172.4,mm,0,BASELINE
S0148,T01,LDIAM,15.5,mm,56,TA1
S0148,T02,LDIAM,27.8,mm,56,TA1
S0148,T03,LDIAM,24.1,mm,56,TA1
S0148,T04,LDIAM,24.7,mm,56,TA1
S0148,,SUMDIAM,92.0,mm,56,TA1
S0150,T01,LDIAM,24.9,mm,0,BASELINE
S0150,,SUMDIAM,24.9,mm,0,BASELINE
S0150,T01,LDIAM,26.4,mm,56,TA1
S0150,,SUMDIAM,26.4,mm,56,TA1
S0150,T01,LDIAM,27.8,mm,112,TA2
S0150,,SUMDIAM,27.8,mm,112,TA2
S0150,T01,LDIAM,27.8,mm,168,TA3
S0150,,SUMDIAM,27.8,mm,168,TA3
S0150,T01,LDIAM,27.8,mm,224,TA4
S0150,,SUMDIAM,27.8,mm,224,TA4
S0150,T01,LDIAM,27.8,mm,280,TA5
S0150,,SUMDIAM,27.8,mm,280,TA5
S0150,T01,LDIAM,27.8,mm,336,TA6
S0150,,SUMDIAM,27.8,mm,336,TA6
S0150,T01,LDIAM,27.8,mm,392,TA7
S0150,,SUMDIAM,27.8,mm,392,TA7
S0150,T01,LDIAM,27.8,mm,448,TA8
S0150,,SUMDIAM,27.8,mm,448,TA8
S0150,T01,LDIAM,27.8,mm,504,TA9
S0150,,SUMDIAM,27.8,mm,504,TA9
S0150,T01,LDIAM,27.8,mm,560,TA10
S0150,,SUMDIAM,27.8,mm,560,TA10
S0150,T01,LDIAM,27.8,mm,616,TA11
S0150,,SUMDIAM,27.8,mm,616,TA11
S0150,T01,LDIAM,27.8,mm,672,TA12
S0150,,SUMDIAM,27.8,mm,672,TA12
S0155,T01,LDIAM,18.1,mm,0,BASELINE
S0155,T02,LDIAM,45.5,mm,0,BASELINE
S0155,T03,LDIAM,49.7,mm,0,BASELINE
S0155,T04,LDIAM,58.1,mm,0,BASELINE
S0155,T05,LDIAM,52.6,mm,0,BASELINE
S0155,,SUMDIAM,224.0,mm,0,BASELINE
S0155,T01,LDIAM,16.2,mm,56,TA1
S0155,T02,LDIAM,40.8,mm,56,TA1
S0155,T03,LDIAM,44.6,mm,56,TA1
S0155,T04,LDIAM,52.1,mm,56,TA1
S0155,T05,LDIAM,47.2,mm,56,TA1
S0155,,SUMDIAM,201.0,mm,56,TA1
S0155,T01,LDIAM,14.4,mm,112,TA2
S0155,T02,LDIAM,36.2,mm,112,TA2
S0155,T03,LDIAM,39.5,mm,112,TA2
S0155,T04,LDIAM,46.2,mm,112,TA2
S0155,T05,LDIAM,41.8,mm,112,TA2
S0155,,SUMDIAM,178.0,mm,112,TA2
S0155,T01,LDIAM,14.4,mm,168,TA3
S0155,T02,LDIAM,36.2,mm,168,TA3
S0155,T03,LDIAM,39.5,mm,168,TA3
S0155,T04,LDIAM,46.2,mm,168,TA3
S0155,T05,LDIAM,41.8,mm,168,TA3
S0155,,SUMDIAM,178.0,mm,168,TA3
S0155,T01,LDIAM,14.4,mm,224,TA4
S0155,T02,LDIAM,36.2,mm,224,TA4
S0155,T03,LDIAM,39.5,mm,224,TA4
S0155,T04,LDIAM,46.2,mm,224,TA4
S0155,T05,LDIAM,41.8,mm,224,TA4
S0155,,SUMDIAM,178.0,mm,224,TA4
S0155,T01,LDIAM,14.4,mm,280,TA5
S0155,T02,LDIAM,36.2,mm,280,TA5
S0155,T03,LDIAM,39.5,mm,280,TA5
S0155,T04,LDIAM,46.2,mm,280,TA5
S0155,T05,LDIAM,41.8,mm,280,TA5
S0155,,SUMDIAM,178.0,mm,280,TA5
S0155,T01,LDIAM,14.4,mm,336,TA6
S0155,T02,LDIAM,36.2,mm,336,TA6
S0155,T03,LDIAM,39.5,mm,336,TA6
S0155,T04,LDIAM,46.2,mm,336,TA6
S0155,T05,LDIAM,41.8,mm,336,TA6
S0155,,SUMDIAM,178.0,mm,336,TA6
S0155,T01,LDIAM,18.2,mm,392,TA7
S0155,T02,LDIAM,45.7,mm,392,TA7
S0155,T03,LDIAM,49.9,mm,392,TA7
S0155,T04,LDIAM,58.3,mm,392,TA7
S0155,T05,LDIAM,52.8,mm,392,TA7
S0155,,SUMDIAM,224.8,mm,392,TA7
S0156,T01,LDIAM,54.3,mm,0,BASELINE
S0156,T02,LDIAM,15.8,mm,0,BASELINE
S0156,T03,LDIAM,17.7,mm,0,BASELINE
S0156,,SUMDIAM,87.8,mm,0,BASELINE
S0156,T01,LDIAM,27.1,mm,56,TA1
S0156,T02,LDIAM,7.9,mm,56,TA1
S0156,T03,LDIAM,8.8,mm,56,TA1
S0156,,SUMDIAM,43.9,mm,56,TA1
S0156,T01,LDIAM,35.3,mm,112,TA2
S0156,T02,LDIAM,10.3,mm,112,TA2
S0156,T03,LDIAM,11.5,mm,112,TA2
S0156,,SUMDIAM,57.1,mm,112,TA2
S0156,T01,LDIAM,35.3,mm,168,TA3
S0156,T02,LDIAM,10.3,mm,168,TA3
S0156,T03,LDIAM,11.5,mm,168,TA3
S0156,,SUMDIAM,57.1,mm,168,TA3
S0156,T01,LDIAM,35.3,mm,224,TA4
S0156,T02,LDIAM,10.3,mm,224,TA4
S0156,T03,LDIAM,11.5,mm,224,TA4
S0156,,SUMDIAM,57.1,mm,224,TA4
S0156,T01,LDIAM,35.3,mm,280,TA5
S0156,T02,LDIAM,10.3,mm,280,TA5
S0156,T03,LDIAM,11.5,mm,280,TA5
S0156,,SUMDIAM,57.1,mm,280,TA5
S0156,T01,LDIAM,35.3,mm,336,TA6
S0156,T02,LDIAM,10.3,mm,336,TA6
S0156,T03,LDIAM,11.5,mm,336,TA6
S0156,,SUMDIAM,57.1,mm,336,TA6
S0157,T01,LDIAM,43.7,mm,0,BASELINE
S0157,,SUMDIAM,43.7,mm,0,BASELINE
S0157,T01,LDIAM,32.2,mm,56,TA1
S0157,,SUMDIAM,32.2,mm,56,TA1
S0157,T01,LDIAM,20.6,mm,112,TA2
S0157,,SUMDIAM,20.6,mm,112,TA2
S0157,T01,LDIAM,20.6,mm,168,TA3
S0157,,SUMDIAM,20.6,mm,168,TA3
S0162,T01,LDIAM,20.3,mm,0,BASELINE
S0162,T02,LDIAM,57.7,mm,0,BASELINE
S0162,T03,LDIAM,19.8,mm,0,BASELINE
S0162,,SUMDIAM,97.8,mm,0,BASELINE
S0162,T01,LDIAM,16.8,mm,56,TA1
S0162,T02,LDIAM,47.7,mm,56,TA1
S0162,T03,LDIAM,16.4,mm,56,TA1
S0162,,SUMDIAM,80.8,mm,56,TA1
S0162,T01,LDIAM,13.3,mm,112,TA2
S0162,T02,LDIAM,37.7,mm,112,TA2
S0162,T03,LDIAM,12.9,mm,112,TA2
S0162,,SUMDIAM,63.8,mm,112,TA2
S0162,T01,LDIAM,13.3,mm,168,TA3
S0162,T02,LDIAM,37.7,mm,168,TA3
S0162,T03,LDIAM,12.9,mm,168,TA3
S0162,,SUMDIAM,63.8,mm,168,TA3
S0162,T01,LDIAM,13.3,mm,224,TA4
S0162,T02,LDIAM,37.7,mm,224,TA4
S0162,T03,LDIAM,12.9,mm,224,TA4
S0162,,SUMDIAM,63.8,mm,224,TA4
S0162,T01,LDIAM,13.3,mm,280,TA5
S0162,T02,LDIAM,37.7,mm,280,TA5
S0162,T03,LDIAM,12.9,mm,280,TA5
S0162,,SUMDIAM,63.8,mm,280,TA5
S0162,T01,LDIAM,16.9,mm,336,TA6
S0162,T02,LDIAM,48.1,mm,336,TA6
S0162,T03,LDIAM,16.5,mm,336,TA6
S0162,,SUMDIAM,81.4,mm,336,TA6
S0164,T01,LDIAM,53.8,mm,0,BASELINE
S0164,T02,LDIAM,45.0,mm,0,BASELINE
S0164,T03,LDIAM,26.4,mm,0,BASELINE
S0164,,SUMDIAM,125.2,mm,0,BASELINE
S0164,T01,LDIAM,54.5,mm,56,TA1
S0164,T02,LDIAM,45.6,mm,56,TA1
S0164,T03,LDIAM,26.7,mm,56,TA1
S0164,,SUMDIAM,126.8,mm,56,TA1
S0167,T01,LDIAM,35.4,mm,0,BASELINE
S0167,T02,LDIAM,34.3,mm,0,BASELINE
S0167,,SUMDIAM,69.7,mm,0,BASELINE
S0167,T01,LDIAM,31.8,mm,56,TA1
S0167,T02,LDIAM,30.8,mm,56,TA1
S0167,,SUMDIAM,62.5,mm,56,TA1
S0167,T01,LDIAM,28.1,mm,112,TA2
S0167,T02,LDIAM,27.3,mm,112,TA2
S0167,,SUMDIAM,55.4,mm,112,TA2
S0167,T01,LDIAM,35.5,mm,168,TA3
S0167,T02,LDIAM,34.4,mm,168,TA3
S0167,,SUMDIAM,70.0,mm,168,TA3
S0169,T01,LDIAM,17.3,mm,0,BASELINE
S0169,T02,LDIAM,26.2,mm,0,BASELINE
S0169,T03,LDIAM,33.2,mm,0,BASELINE
S0169,,SUMDIAM,76.7,mm,0,BASELINE
S0169,T01,LDIAM,18.8,mm,56,TA1
S0169,T02,LDIAM,28.5,mm,56,TA1
S0169,T03,LDIAM,36.1,mm,56,TA1
S0169,,SUMDIAM,83.5,mm,56,TA1
S0169,T01,LDIAM,20.3,mm,112,TA2
S0169,T02,LDIAM,30.8,mm,112,TA2
S0169,T03,LDIAM,39.0,mm,112,TA2
S0169,,SUMDIAM,90.2,mm,112,TA2
S0170,T01,LDIAM,24.0,mm,0,BASELINE
S0170,T02,LDIAM,38.4,mm,0,BASELINE
S0170,,SUMDIAM,62.4,mm,0,BASELINE
S0170,T01,LDIAM,22.5,mm,56,TA1
S0170,T02,LDIAM,36.1,mm,56,TA1
S0170,,SUMDIAM,58.6,mm,56,TA1
S0170,T01,LDIAM,28.2,mm,112,TA2
S0170,T02,LDIAM,45.2,mm,112,TA2
S0170,,SUMDIAM,73.4,mm,112,TA2
S0179,T01,LDIAM,55.4,mm,0,BASELINE
S0179,T02,LDIAM,48.4,mm,0,BASELINE
S0179,T03,LDIAM,24.6,mm,0,BASELINE
S0179,T04,LDIAM,58.5,mm,0,BASELINE
S0179,,SUMDIAM,186.9,mm,0,BASELINE
S0179,T01,LDIAM,54.8,mm,56,TA1
S0179,T02,LDIAM,47.9,mm,56,TA1
S0179,T03,LDIAM,24.3,mm,56,TA1
S0179,T04,LDIAM,57.8,mm,56,TA1
S0179,,SUMDIAM,184.8,mm,56,TA1
S0179,T01,LDIAM,54.2,mm,112,TA2
S0179,T02,LDIAM,47.3,mm,112,TA2
S0179,T03,LDIAM,24.0,mm,112,TA2
S0179,T04,LDIAM,57.2,mm,112,TA2
S0179,,SUMDIAM,182.7,mm,112,TA2
S0179,T01,LDIAM,54.2,mm,168,TA3
S0179,T02,LDIAM,47.3,mm,168,TA3
S0179,T03,LDIAM,24.0,mm,168,TA3
S0179,T04,LDIAM,57.2,mm,168,TA3
S0179,,SUMDIAM,182.7,mm,168,TA3
S0179,T01,LDIAM,54.2,mm,224,TA4
S0179,T02,LDIAM,47.3,mm,224,TA4
S0179,T03,LDIAM,24.0,mm,224,TA4
S0179,T04,LDIAM,57.2,mm,224,TA4
S0179,,SUMDIAM,182.7,mm,224,TA4
S0179,T01,LDIAM,54.2,mm,280,TA5
S0179,T02,LDIAM,47.3,mm,280,TA5
S0179,T03,LDIAM,24.0,mm,280,TA5
S0179,T04,LDIAM,57.2,mm,280,TA5
S0179,,SUMDIAM,182.7,mm,280,TA5
S0179,T01,LDIAM,67.8,mm,336,TA6
S0179,T02,LDIAM,59.2,mm,336,TA6
S0179,T03,LDIAM,30.1,mm,336,TA6
S0179,T04,LDIAM,71.5,mm,336,TA6
S0179,,SUMDIAM,228.6,mm,336,TA6
S0183,T01,LDIAM,12.6,mm,0,BASELINE
S0183,T02,LDIAM,33.7,mm,0,BASELINE
S0183,,SUMDIAM,46.3,mm,0,BASELINE
S0183,T01,LDIAM,10.9,mm,56,TA1
S0183,T02,LDIAM,29.1,mm,56,TA1
S0183,,SUMDIAM,39.9,mm,56,TA1
S0183,T01,LDIAM,13.7,mm,112,TA2
S0183,T02,LDIAM,36.5,mm,112,TA2
S0183,,SUMDIAM,50.2,mm,112,TA2
S0185,T01,LDIAM,10.0,mm,0,BASELINE
S0185,T02,LDIAM,42.6,mm,0,BASELINE
S0185,T03,LDIAM,34.0,mm,0,BASELINE
S0185,T04,LDIAM,34.2,mm,0,BASELINE
S0185,,SUMDIAM,120.8,mm,0,BASELINE
S0185,T01,LDIAM,8.6,mm,56,TA1
S0185,T02,LDIAM,36.6,mm,56,TA1
S0185,T03,LDIAM,29.2,mm,56,TA1
S0185,T04,LDIAM,29.4,mm,56,TA1
S0185,,SUMDIAM,103.7,mm,56,TA1
S0185,T01,LDIAM,7.2,mm,112,TA2
S0185,T02,LDIAM,30.6,mm,112,TA2
S0185,T03,LDIAM,24.4,mm,112,TA2
S0185,T04,LDIAM,24.5,mm,112,TA2
S0185,,SUMDIAM,86.7,mm,112,TA2
S0185,T01,LDIAM,7.2,mm,168,TA3
S0185,T02,LDIAM,30.6,mm,168,TA3
S0185,T03,LDIAM,24.4,mm,168,TA3
S0185,T04,LDIAM,24.5,mm,168,TA3
S0185,,SUMDIAM,86.7,mm,168,TA3
S0185,T01,LDIAM,7.2,mm,224,TA4
S0185,T02,LDIAM,30.6,mm,224,TA4
S0185,T03,LDIAM,24.4,mm,224,TA4
S0185,T04,LDIAM,24.5,mm,224,TA4
S0185,,SUMDIAM,86.7,mm,224,TA4
S0185,T01,LDIAM,7.2,mm,280,TA5
S0185,T02,LDIAM,30.6,mm,280,TA5
S0185,T03,LDIAM,24.4,mm,280,TA5
S0185,T04,LDIAM,24.5,mm,280,TA5
S0185,,SUMDIAM,86.7,mm,280,TA5
S0185,T01,LDIAM,7.2,mm,336,TA6
S0185,T02,LDIAM,30.6,mm,336,TA6
S0185,T03,LDIAM,24.4,mm,336,TA6
S0185,T04,LDIAM,24.5,mm,336,TA6
S0185,,SUMDIAM,86.7,mm,336,TA6
S0185,T01,LDIAM,7.2,mm,392,TA7
S0185,T02,LDIAM,30.6,mm,392,TA7
S0185,T03,LDIAM,24.4,mm,392,TA7
S0185,T04,LDIAM,24.5,mm,392,TA7
S0185,,SUMDIAM,86.7,mm,392,TA7
S0185,T01,LDIAM,7.2,mm,448,TA8
S0185,T02,LDIAM,30.6,mm,448,TA8
S0185,T03,LDIAM,24.4,mm,448,TA8
S0185,T04,LDIAM,24.5,mm,448,TA8
S0185,,SUMDIAM,86.7,mm,448,TA8
S0185,T01,LDIAM,7.2,mm,504,TA9
S0185,T02,LDIAM,30.6,mm,504,TA9
S0185,T03,LDIAM,24.4,mm,504,TA9
S0185,T04,LDIAM,24.5,mm,504,TA9
S0185,,SUMDIAM,86.7,mm,504,TA9
S0185,T01,LDIAM,7.2,mm,560,TA10
S0185,T02,LDIAM,30.6,mm,560,TA10
S0185,T03,LDIAM,24.4,mm,560,TA10
S0185,T04,LDIAM,24.5,mm,560,TA10
S0185,,SUMDIAM,86.7,mm,560,TA10
S0185,T01,LDIAM,7.2,mm,616,TA11
S0185,T02,LDIAM,30.6,mm,616,TA11
S0185,T03,LDIAM,24.4,mm,616,TA11
S0185,T04,LDIAM,24.5,mm,616,TA11
S0185,,SUMDIAM,86.7,mm,616,TA11
S0185,T01,LDIAM,7.2,mm,672,TA12
S0185,T02,LDIAM,30.6,mm,672,TA12
S0185,T03,LDIAM,24.4,mm,672,TA12
S0185,T04,LDIAM,24.5,mm,672,TA12
S0185,,SUMDIAM,86.7,mm,672,TA12
S0185,T01,LDIAM,7.2,mm,728,TA13
S0185,T02,LDIAM,30.6,mm,728,TA13
S0185,T03,LDIAM,24.4,mm,728,TA13
S0185,T04,LDIAM,24.5,mm,728,TA13
S0185,,SUMDIAM,86.7,mm,728,TA13
S0185,T01,LDIAM,9.1,mm,784,TA14
S0185,T02,LDIAM,38.8,mm,784,TA14
S0185,T03,LDIAM,31.0,mm,784,TA14
S0185,T04,LDIAM,31.2,mm,784,TA14
S0185,,SUMDIAM,110.1,mm,784,TA14
S0186,T01,LDIAM,46.8,mm,0,BASELINE
S0186,T02,LDIAM,14.7,mm,0,BASELINE
S0186,,SUMDIAM,61.5,mm,0,BASELINE
S0186,T01,LDIAM,49.0,mm,56,TA1
S0186,T02,LDIAM,15.4,mm,56,TA1
S0186,,SUMDIAM,64.4,mm,56,TA1
S0186,T01,LDIAM,51.2,mm,112,TA2
S0186,T02,LDIAM,16.1,mm,112,TA2
S0186,,SUMDIAM,67.2,mm,112,TA2
S0186,T01,LDIAM,51.2,mm,168,TA3
S0186,T02,LDIAM,16.1,mm,168,TA3
S0186,,SUMDIAM,67.2,mm,168,TA3
S0186,T01,LDIAM,51.2,mm,224,TA4
S0186,T02,LDIAM,16.1,mm,224,TA4
S0186,,SUMDIAM,67.2,mm,224,TA4
S0186,T01,LDIAM,51.2,mm,280,TA5
S0186,T02,LDIAM,16.1,mm,280,TA5
S0186,,SUMDIAM,67.2,mm,280,TA5
S0186,T01,LDIAM,51.2,mm,336,TA6
S0186,T02,LDIAM,16.1,mm,336,TA6
S0186,,SUMDIAM,67.2,mm,336,TA6
S0186,T01,LDIAM,51.2,mm,392,TA7
S0186,T02,LDIAM,16.1,mm,392,TA7
S0186,,SUMDIAM,67.2,mm,392,TA7
S0186,T01,LDIAM,51.2,mm,448,TA8
S0186,T02,LDIAM,16.1,mm,448,TA8
S0186,,SUMDIAM,67.2,mm,448,TA8
S0186,T01,LDIAM,51.2,mm,504,TA9
S0186,T02,LDIAM,16.1,mm,504,TA9
S0186,,SUMDIAM,67.2,mm,504,TA9
S0186,T01,LDIAM,51.2,mm,560,TA10
S0186,T02,LDIAM,16.1,mm,560,TA10
S0186,,SUMDIAM,67.2,mm,560,TA10
S0186,T01,LDIAM,51.2,mm,616,TA11
S0186,T02,LDIAM,16.1,mm,616,TA11
S0186,,SUMDIAM,67.2,mm,616,TA11
S0186,T01,LDIAM,51.2,mm,672,TA12
S0186,T02,LDIAM,16.1,mm,672,TA12
S0186,,SUMDIAM,67.2,mm,672,TA12
S0186,T01,LDIAM,51.2,mm,728,TA13
S0186,T02,LDIAM,16.1,mm,728,TA13
S0186,,SUMDIAM,67.2,mm,728,TA13
S0186,T01,LDIAM,51.2,mm,784,TA14
S0186,T02,LDIAM,16.1,mm,784,TA14
S0186,,SUMDIAM,67.2,mm,784,TA14
S0186,T01,LDIAM,51.2,mm,840,TA15
S0186,T02,LDIAM,16.1,mm,840,TA15
S0186,,SUMDIAM,67.2,mm,840,TA15
S0186,T01,LDIAM,51.2,mm,896,TA16
S0186,T02,LDIAM,16.1,mm,896,TA16
S0186,,SUMDIAM,67.2,mm,896,TA16
S0186,T01,LDIAM,58.5,mm,952,TA17
S0186,T02,LDIAM,18.4,mm,952,TA17
S0186,,SUMDIAM,76.9,mm,952,TA17
S0187,T01,LDIAM,42.6,mm,0,BASELINE
S0187,T02,LDIAM,30.4,mm,0,BASELINE
S0187,T03,LDIAM,50.0,mm,0,BASELINE
S0187,T04,LDIAM,34.6,mm,0,BASELINE
S0187,T05,LDIAM,16.0,mm,0,BASELINE
S0187,,SUMDIAM,173.6,mm,0,BASELINE
S0187,T01,LDIAM,33.9,mm,56,TA1
S0187,T02,LDIAM,24.2,mm,56,TA1
S0187,T03,LDIAM,39.8,mm,56,TA1
S0187,T04,LDIAM,27.6,mm,56,TA1
S0187,T05,LDIAM,12.7,mm,56,TA1
S0187,,SUMDIAM,138.3,mm,56,TA1
S0187,T01,LDIAM,25.3,mm,112,TA2
S0187,T02,LDIAM,18.0,mm,112,TA2
S0187,T03,LDIAM,29.7,mm,112,TA2
S0187,T04,LDIAM,20.5,mm,112,TA2
S0187,T05,LDIAM,9.5,mm,112,TA2
S0187,,SUMDIAM,103.0,mm,112,TA2
S0187,T01,LDIAM,25.3,mm,168,TA3
S0187,T02,LDIAM,18.0,mm,168,TA3
S0187,T03,LDIAM,29.7,mm,168,TA3
S0187,T04,LDIAM,20.5,mm,168,TA3
S0187,T05,LDIAM,9.5,mm,168,TA3
S0187,,SUMDIAM,103.0,mm,168,TA3
S0187,T01,LDIAM,25.3,mm,224,TA4
S0187,T02,LDIAM,18.0,mm,224,TA4
S0187,T03,LDIAM,29.7,mm,224,TA4
S0187,T04,LDIAM,20.5,mm,224,TA4
S0187,T05,LDIAM,9.5,mm,224,TA4
S0187,,SUMDIAM,103.0,mm,224,TA4
S0002,T01,LDIAM,32.2,mm,0,BASELINE
S0002,,SUMDIAM,32.2,mm,0,BASELINE
S0002,T01,LDIAM,25.3,mm,56,TA1
S0002,,SUMDIAM,25.3,mm,56,TA1
S0002,T01,LDIAM,18.3,mm,112,TA2
S0002,,SUMDIAM,18.3,mm,112,TA2
S0002,T01,LDIAM,18.3,mm,168,TA3
S0002,,SUMDIAM,18.3,mm,168,TA3
S0002,T01,LDIAM,24.3,mm,224,TA4
S0002,,SUMDIAM,24.3,mm,224,TA4
S0019,T01,LDIAM,42.5,mm,0,BASELINE
S0019,T02,LDIAM,21.5,mm,0,BASELINE
S0019,T03,LDIAM,55.9,mm,0,BASELINE
S0019,T04,LDIAM,27.4,mm,0,BASELINE
S0019,,SUMDIAM,147.3,mm,0,BASELINE
S0019,T01,LDIAM,27.7,mm,56,TA1
S0019,T02,LDIAM,14.0,mm,56,TA1
S0019,T03,LDIAM,36.4,mm,56,TA1
S0019,T04,LDIAM,17.9,mm,56,TA1
S0019,,SUMDIAM,96.0,mm,56,TA1
S0019,T01,LDIAM,12.9,mm,112,TA2
S0019,T02,LDIAM,6.5,mm,112,TA2
S0019,T03,LDIAM,17.0,mm,112,TA2
S0019,T04,LDIAM,8.3,mm,112,TA2
S0019,,SUMDIAM,44.7,mm,112,TA2
S0019,T01,LDIAM,12.9,mm,168,TA3
S0019,T02,LDIAM,6.5,mm,168,TA3
S0019,T03,LDIAM,17.0,mm,168,TA3
S0019,T04,LDIAM,8.3,mm,168,TA3
S0019,,SUMDIAM,44.7,mm,168,TA3
S0019,T01,LDIAM,12.9,mm,224,TA4
S0019,T02,LDIAM,6.5,mm,224,TA4
S0019,T03,LDIAM,17.0,mm,224,TA4
S0019,T04,LDIAM,8.3,mm,224,TA4
S0019,,SUMDIAM,44.7,mm,224,TA4
S0019,T01,LDIAM,12.9,mm,280,TA5
S0019,T02,LDIAM,6.5,mm,280,TA5
S0019,T03,LDIAM,17.0,mm,280,TA5
S0019,T04,LDIAM,8.3,mm,280,TA5
S0019,,SUMDIAM,44.7,mm,280,TA5
S0019,T01,LDIAM,12.9,mm,336,TA6
S0019,T02,LDIAM,6.5,mm,336,TA6
S0019,T03,LDIAM,17.0,mm,336,TA6
S0019,T04,LDIAM,8.3,mm,336,TA6
S0019,,SUMDIAM,44.7,mm,336,TA6
S0019,T01,LDIAM,12.9,mm,392,TA7
S0019,T02,LDIAM,6.5,mm,392,TA7
S0019,T03,LDIAM,17.0,mm,392,TA7
S0019,T04,LDIAM,8.3,mm,392,TA7
S0019,,SUMDIAM,44.7,mm,392,TA7
S0019,T01,LDIAM,12.9,mm,448,TA8
S0019,T02,LDIAM,6.5,mm,448,TA8
S0019,T03,LDIAM,17.0,mm,448,TA8
S0019,T04,LDIAM,8.3,mm,448,TA8
S0019,,SUMDIAM,44.7,mm,448,TA8
S0019,T01,LDIAM,12.9,mm,504,TA9
S0019,T02,LDIAM,6.5,mm,504,TA9
S0019,T03,LDIAM,17.0,mm,504,TA9
S0019,T04,LDIAM,8.3,mm,504,TA9
S0019,,SUMDIAM,44.7,mm,504,TA9
S0022,T01,LDIAM,55.1,mm,0,BASELINE
S0022,T02,LDIAM,55.5,mm,0,BASELINE
S0022,T03,LDIAM,52.2,mm,0,BASELINE
S0022,,SUMDIAM,162.8,mm,0,BASELINE
S0022,T01,LDIAM,47.9,mm,56,TA1
S0022,T02,LDIAM,48.3,mm,56,TA1
S0022,T03,LDIAM,45.4,mm,56,TA1
S0022,,SUMDIAM,141.6,mm,56,TA1
S0022,T01,LDIAM,40.7,mm,112,TA2
S0022,T02,LDIAM,41.0,mm,112,TA2
S0022,T03,LDIAM,38.6,mm,112,TA2
S0022,,SUMDIAM,120.4,mm,112,TA2
S0022,T01,LDIAM,40.7,mm,168,TA3
S0022,T02,LDIAM,41.0,mm,168,TA3
S0022,T03,LDIAM,38.6,mm,168,TA3
S0022,,SUMDIAM,120.4,mm,168,TA3
S0022,T01,LDIAM,40.7,mm,224,TA4
S0022,T02,LDIAM,41.0,mm,224,TA4
S0022,T03,LDIAM,38.6,mm,224,TA4
S0022,,SUMDIAM,120.4,mm,224,TA4
S0022,T01,LDIAM,40.7,mm,280,TA5
S0022,T02,LDIAM,41.0,mm,280,TA5
S0022,T03,LDIAM,38.6,mm,280,TA5
S0022,,SUMDIAM,120.4,mm,280,TA5
S0022,T01,LDIAM,40.7,mm,336,TA6
S0022,T02,LDIAM,41.0,mm,336,TA6
S0022,T03,LDIAM,38.6,mm,336,TA6
S0022,,SUMDIAM,120.4,mm,336,TA6
S0022,T01,LDIAM,40.7,mm,392,TA7
S0022,T02,LDIAM,41.0,mm,392,TA7
S0022,T03,LDIAM,38.6,mm,392,TA7
S0022,,SUMDIAM,120.4,mm,392,TA7
S0022,T01,LDIAM,40.7,mm,448,TA8
S0022,T02,LDIAM,41.0,mm,448,TA8
S0022,T03,LDIAM,38.6,mm,448,TA8
S0022,,SUMDIAM,120.4,mm,448,TA8
S0022,T01,LDIAM,40.7,mm,504,TA9
S0022,T02,LDIAM,41.0,mm,504,TA9
S0022,T03,LDIAM,38.6,mm,504,TA9
S0022,,SUMDIAM,120.4,mm,504,TA9
S0022,T01,LDIAM,51.7,mm,560,TA10
S0022,T02,LDIAM,52.0,mm,560,TA10
S0022,T03,LDIAM,48.9,mm,560,TA10
S0022,,SUMDIAM,152.6,mm,560,TA10
S0027,T01,LDIAM,48.5,mm,0,BASELINE
S0027,,SUMDIAM,48.5,mm,0,BASELINE
S0027,T01,LDIAM,24.8,mm,56,TA1
S0027,,SUMDIAM,24.8,mm,56,TA1
S0027,T01,LDIAM,1.2,mm,112,TA2
S0027,,SUMDIAM,1.2,mm,112,TA2
S0027,T01,LDIAM,1.2,mm,168,TA3
S0027,,SUMDIAM,1.2,mm,168,TA3
S0027,T01,LDIAM,1.2,mm,224,TA4
S0027,,SUMDIAM,1.2,mm,224,TA4
S0027,T01,LDIAM,1.2,mm,280,TA5
S0027,,SUMDIAM,1.2,mm,280,TA5
S0027,T01,LDIAM,1.2,mm,336,TA6
S0027,,SUMDIAM,1.2,mm,336,TA6
S0027,T01,LDIAM,1.2,mm,392,TA7
S0027,,SUMDIAM,1.2,mm,392,TA7
S0028,T01,LDIAM,36.5,mm,0,BASELINE
S0028,,SUMDIAM,36.5,mm,0,BASELINE
S0028,T01,LDIAM,45.6,mm,56,TA1
S0028,,SUMDIAM,45.6,mm,56,TA1
S0033,T01,LDIAM,35.7,mm,0,BASELINE
S0033,T02,LDIAM,35.4,mm,0,BASELINE
S0033,T03,LDIAM,33.5,mm,0,BASELINE
S0033,T04,LDIAM,50.0,mm,0,BASELINE
S0033,T05,LDIAM,25.8,mm,0,BASELINE
S0033,,SUMDIAM,180.4,mm,0,BASELINE
S0033,T01,LDIAM,28.4,mm,56,TA1
S0033,T02,LDIAM,28.1,mm,56,TA1
S0033,T03,LDIAM,26.6,mm,56,TA1
S0033,T04,LDIAM,39.8,mm,56,TA1
S0033,T05,LDIAM,20.5,mm,56,TA1
S0033,,SUMDIAM,143.4,mm,56,TA1
S0033,T01,LDIAM,21.1,mm,112,TA2
S0033,T02,LDIAM,20.9,mm,112,TA2
S0033,T03,LDIAM,19.8,mm,112,TA2
S0033,T04,LDIAM,29.5,mm,112,TA2
S0033,T05,LDIAM,15.2,mm,112,TA2
S0033,,SUMDIAM,106.5,mm,112,TA2
S0033,T01,LDIAM,21.1,mm,168,TA3
S0033,T02,LDIAM,20.9,mm,168,TA3
S0033,T03,LDIAM,19.8,mm,168,TA3
S0033,T04,LDIAM,29.5,mm,168,TA3
S0033,T05,LDIAM,15.2,mm,168,TA3
S0033,,SUMDIAM,106.5,mm,168,TA3
S0033,T01,LDIAM,21.1,mm,224,TA4
S0033,T02,LDIAM,20.9,mm,224,TA4
S0033,T03,LDIAM,19.8,mm,224,TA4
S0033,T04,LDIAM,29.5,mm,224,TA4
S0033,T05,LDIAM,15.2,mm,224,TA4
S0033,,SUMDIAM,106.5,mm,224,TA4
S0033,T01,LDIAM,21.1,mm,280,TA5
S0033,T02,LDIAM,20.9,mm,280,TA5
S0033,T03,LDIAM,19.8,mm,280,TA5
S0033,T04,LDIAM,29.5,mm,280,TA5
S0033,T05,LDIAM,15.2,mm,280,TA5
S0033,,SUMDIAM,106.5,mm,280,TA5
S0033,T01,LDIAM,21.1,mm,336,TA6
S0033,T02,LDIAM,20.9,mm,336,TA6
S0033,T03,LDIAM,19.8,mm,336,TA6
S0033,T04,LDIAM,29.5,mm,336,TA6
S0033,T05,LDIAM,15.2,mm,336,TA6
S0033,,SUMDIAM,106.5,mm,336,TA6
S0033,T01,LDIAM,27.1,mm,392,TA7
S0033,T02,LDIAM,26.8,mm,392,TA7
S0033,T03,LDIAM,25.4,mm,392,TA7
S0033,T04,LDIAM,37.9,mm,392,TA7
S0033,T05,LDIAM,19.6,mm,392,TA7
S0033,,SUMDIAM,136.8,mm,392,TA7
S0036,T01,LDIAM,23.0,mm,0,BASELINE
S0036,T02,LDIAM,51.8,mm,0,BASELINE
S0036,T03,LDIAM,26.7,mm,0,BASELINE
S0036,T04,LDIAM,44.6,mm,0,BASELINE
S0036,T05,LDIAM,45.6,mm,0,BASELINE
S0036,,SUMDIAM,191.7,mm,0,BASELINE
S0036,T01,LDIAM,11.5,mm,56,TA1
S0036,T02,LDIAM,25.9,mm,56,TA1
S0036,T03,LDIAM,13.3,mm,56,TA1
S0036,T04,LDIAM,22.3,mm,56,TA1
S0036,T05,LDIAM,22.8,mm,56,TA1
S0036,,SUMDIAM,95.8,mm,56,TA1
S0036,T01,LDIAM,14.9,mm,112,TA2
S0036,T02,LDIAM,33.7,mm,112,TA2
S0036,T03,LDIAM,17.3,mm,112,TA2
S0036,T04,LDIAM,29.0,mm,112,TA2
S0036,T05,LDIAM,29.6,mm,112,TA2
S0036,,SUMDIAM,124.5,mm,112,TA2
S0037,T01,LDIAM,58.1,mm,0,BASELINE
S0037,T02,LDIAM,56.1,mm,0,BASELINE
S0037,T03,LDIAM,29.1,mm,0,BASELINE
S0037,,SUMDIAM,143.3,mm,0,BASELINE
S0037,T01,LDIAM,51.7,mm,56,TA1
S0037,T02,LDIAM,49.9,mm,56,TA1
S0037,T03,LDIAM,25.9,mm,56,TA1
S0037,,SUMDIAM,127.5,mm,56,TA1
S0037,T01,LDIAM,45.3,mm,112,TA2
S0037,T02,LDIAM,43.7,mm,112,TA2
S0037,T03,LDIAM,22.7,mm,112,TA2
S0037,,SUMDIAM,111.7,mm,112,TA2
S0037,T01,LDIAM,45.3,mm,168,TA3
S0037,T02,LDIAM,43.7,mm,168,TA3
S0037,T03,LDIAM,22.7,mm,168,TA3
S0037,,SUMDIAM,111.7,mm,168,TA3
S0039,T01,LDIAM,58.0,mm,0,BASELINE
S0039,T02,LDIAM,24.3,mm,0,BASELINE
S0039,T03,LDIAM,42.0,mm,0,BASELINE
S0039,,SUMDIAM,124.3,mm,0,BASELINE
S0039,T01,LDIAM,72.5,mm,56,TA1
S0039,T02,LDIAM,30.4,mm,56,TA1
S0039,T03,LDIAM,52.5,mm,56,TA1
S0039,,SUMDIAM,155.4,mm,56,TA1
S0041,T01,LDIAM,40.0,mm,0,BASELINE
S0041,T02,LDIAM,42.9,mm,0,BASELINE
S0041,T03,LDIAM,41.1,mm,0,BASELINE
S0041,,SUMDIAM,124.0,mm,0,BASELINE
S0041,T01,LDIAM,32.8,mm,56,TA1
S0041,T02,LDIAM,35.2,mm,56,TA1
S0041,T03,LDIAM,33.7,mm,56,TA1
S0041,,SUMDIAM,101.6,mm,56,TA1
S0041,T01,LDIAM,25.6,mm,112,TA2
S0041,T02,LDIAM,27.4,mm,112,TA2
S0041,T03,LDIAM,26.3,mm,112,TA2
S0041,,SUMDIAM,79.3,mm,112,TA2
S0041,T01,LDIAM,25.6,mm,168,TA3
S0041,T02,LDIAM,27.4,mm,168,TA3
S0041,T03,LDIAM,26.3,mm,168,TA3
S0041,,SUMDIAM,79.3,mm,168,TA3
S0045,T01,LDIAM,56.8,mm,0,BASELINE
S0045,T02,LDIAM,22.4,mm,0,BASELINE
S0045,,SUMDIAM,79.2,mm,0,BASELINE
S0045,T01,LDIAM,44.3,mm,56,TA1
S0045,T02,LDIAM,17.5,mm,56,TA1
S0045,,SUMDIAM,61.7,mm,56,TA1
S0045,T01,LDIAM,31.7,mm,112,TA2
S0045,T02,LDIAM,12.5,mm,112,TA2
S0045,,SUMDIAM,44.2,mm,112,TA2
S0045,T01,LDIAM,31.7,mm,168,TA3
S0045,T02,LDIAM,12.5,mm,168,TA3
S0045,,SUMDIAM,44.2,mm,168,TA3
S0049,T01,LDIAM,30.8,mm,0,BASELINE
S0049,T02,LDIAM,32.2,mm,0,BASELINE
S0049,,SUMDIAM,63.0,mm,0,BASELINE
S0049,T01,LDIAM,21.7,mm,56,TA1
S0049,T02,LDIAM,22.7,mm,56,TA1
S0049,,SUMDIAM,44.4,mm,56,TA1
S0049,T01,LDIAM,27.6,mm,112,TA2
S0049,T02,LDIAM,28.8,mm,112,TA2
S0049,,SUMDIAM,56.4,mm,112,TA2
S0050,T01,LDIAM,16.8,mm,0,BASELINE
S0050,,SUMDIAM,16.8,mm,0,BASELINE
S0050,T01,LDIAM,13.0,mm,56,TA1
S0050,,SUMDIAM,13.0,mm,56,TA1
S0050,T01,LDIAM,9.3,mm,112,TA2
S0050,,SUMDIAM,9.3,mm,112,TA2
S0050,T01,LDIAM,9.3,mm,168,TA3
S0050,,SUMDIAM,9.3,mm,168,TA3
S0050,T01,LDIAM,9.3,mm,224,TA4
S0050,,SUMDIAM,9.3,mm,224,TA4
S0050,T01,LDIAM,9.3,mm,280,TA5
S0050,,SUMDIAM,9.3,mm,280,TA5
S0050,T01,LDIAM,9.3,mm,336,TA6
S0050,,SUMDIAM,9.3,mm,336,TA6
S0050,T01,LDIAM,9.3,mm,392,TA7
S0050,,SUMDIAM,9.3,mm,392,TA7
S0050,T01,LDIAM,9.3,mm,448,TA8
S0050,,SUMDIAM,9.3,mm,448,TA8
S0050,T01,LDIAM,9.3,mm,504,TA9
S0050,,SUMDIAM,9.3,mm,504,TA9
S0050,T01,LDIAM,9.3,mm,560,TA10
S0050,,SUMDIAM,9.3,mm,560,TA10
S0050,T01,LDIAM,15.3,mm,616,TA11
S0050,,SUMDIAM,15.3,mm,616,TA11
S0057,T01,LDIAM,37.9,mm,0,BASELINE
S0057,,SUMDIAM,37.9,mm,0,BASELINE
S0057,T01,LDIAM,24.9,mm,56,TA1
S0057,,SUMDIAM,24.9,mm,56,TA1
S0057,T01,LDIAM,12.0,mm,112,TA2
S0057,,SUMDIAM,12.0,mm,112,TA2
S0057,T01,LDIAM,12.0,mm,168,TA3
S0057,,SUMDIAM,12.0,mm,168,TA3
S0057,T01,LDIAM,12.0,mm,224,TA4
S0057,,SUMDIAM,12.0,mm,224,TA4
S0057,T01,LDIAM,12.0,mm,280,TA5
S0057,,SUMDIAM,12.0,mm,280,TA5
S0057,T01,LDIAM,12.0,mm,336,TA6
S0057,,SUMDIAM,12.0,mm,336,TA6
S0057,T01,LDIAM,12.0,mm,392,TA7
S0057,,SUMDIAM,12.0,mm,392,TA7
S0057,T01,LDIAM,12.0,mm,448,TA8
S0057,,SUMDIAM,12.0,mm,448,TA8
S0057,T01,LDIAM,12.0,mm,504,TA9
S0057,,SUMDIAM,12.0,mm,504,TA9
S0057,T01,LDIAM,18.0,mm,560,TA10
S0057,,SUMDIAM,18.0,mm,560,TA10
S0057,T01,LDIAM,18.0,mm,616,TA11
S0057,,SUMDIAM,18.0,mm,616,TA11
S0079,T01,LDIAM,38.6,mm,0,BASELINE
S0079,T02,LDIAM,12.9,mm,0,BASELINE
S0079,,SUMDIAM,51.5,mm,0,BASELINE
S0079,T01,LDIAM,23.1,mm,56,TA1
S0079,T02,LDIAM,7.7,mm,56,TA1
S0079,,SUMDIAM,30.8,mm,56,TA1
S0079,T01,LDIAM,7.5,mm,112,TA2
S0079,T02,LDIAM,2.5,mm,112,TA2
S0079,,SUMDIAM,10.1,mm,112,TA2
S0079,T01,LDIAM,7.5,mm,168,TA3
S0079,T02,LDIAM,2.5,mm,168,TA3
S0079,,SUMDIAM,10.1,mm,168,TA3
S0079,T01,LDIAM,7.5,mm,224,TA4
S0079,T02,LDIAM,2.5,mm,224,TA4
S0079,,SUMDIAM,10.1,mm,224,TA4
S0079,T01,LDIAM,7.5,mm,280,TA5
S0079,T02,LDIAM,2.5,mm,280,TA5
S0079,,SUMDIAM,10.1,mm,280,TA5
S0079,T01,LDIAM,7.5,mm,336,TA6
S0079,T02,LDIAM,2.5,mm,336,TA6
S0079,,SUMDIAM,10.1,mm,336,TA6
S0079,T01,LDIAM,7.5,mm,392,TA7
S0079,T02,LDIAM,2.5,mm,392,TA7
S0079,,SUMDIAM,10.1,mm,392,TA7
S0079,T01,LDIAM,7.5,mm,448,TA8
S0079,T02,LDIAM,2.5,mm,448,TA8
S0079,,SUMDIAM,10.1,mm,448,TA8
S0079,T01,LDIAM,7.5,mm,504,TA9
S0079,T02,LDIAM,2.5,mm,504,TA9
S0079,,SUMDIAM,10.1,mm,504,TA9
S0079,T01,LDIAM,7.5,mm,560,TA10
S0079,T02,LDIAM,2.5,mm,560,TA10
S0079,,SUMDIAM,10.1,mm,560,TA10
S0079,T01,LDIAM,12.1,mm,616,TA11
S0079,T02,LDIAM,4.0,mm,616,TA11
S0079,,SUMDIAM,16.1,mm,616,TA11
S0079,T01,LDIAM,12.1,mm,672,TA12
S0079,T02,LDIAM,4.0,mm,672,TA12
S0079,,SUMDIAM,16.1,mm,672,TA12
S0079,T01,LDIAM,12.1,mm,728,TA13
S0079,T02,LDIAM,4.0,mm,728,TA13
S0079,,SUMDIAM,16.1,mm,728,TA13
S0081,T01,LDIAM,36.4,mm,0,BASELINE
S0081,T02,LDIAM,54.0,mm,0,BASELINE
S0081,T03,LDIAM,23.0,mm,0,BASELINE
S0081,,SUMDIAM,113.4,mm,0,BASELINE
S0081,T01,LDIAM,45.5,mm,56,TA1
S0081,T02,LDIAM,67.5,mm,56,TA1
S0081,T03,LDIAM,28.8,mm,56,TA1
S0081,,SUMDIAM,141.8,mm,56,TA1
S0088,T01,LDIAM,30.7,mm,0,BASELINE
S0088,T02,LDIAM,47.0,mm,0,BASELINE
S0088,T03,LDIAM,27.9,mm,0,BASELINE
S0088,T04,LDIAM,55.7,mm,0,BASELINE
S0088,,SUMDIAM,161.3,mm,0,BASELINE
S0088,T01,LDIAM,38.4,mm,56,TA1
S0088,T02,LDIAM,58.8,mm,56,TA1
S0088,T03,LDIAM,34.9,mm,56,TA1
S0088,T04,LDIAM,69.6,mm,56,TA1
S0088,,SUMDIAM,201.6,mm,56,TA1
S0093,T01,LDIAM,52.9,mm,0,BASELINE
S0093,T02,LDIAM,46.2,mm,0,BASELINE
S0093,,SUMDIAM,99.1,mm,0,BASELINE
S0093,T01,LDIAM,32.3,mm,56,TA1
S0093,T02,LDIAM,28.2,mm,56,TA1
S0093,,SUMDIAM,60.5,mm,56,TA1
S0093,T01,LDIAM,11.7,mm,112,TA2
S0093,T02,LDIAM,10.2,mm,112,TA2
S0093,,SUMDIAM,21.8,mm,112,TA2
S0093,T01,LDIAM,11.7,mm,168,TA3
S0093,T02,LDIAM,10.2,mm,168,TA3
S0093,,SUMDIAM,21.8,mm,168,TA3
S0093,T01,LDIAM,11.7,mm,224,TA4
S0093,T02,LDIAM,10.2,mm,224,TA4
S0093,,SUMDIAM,21.8,mm,224,TA4
S0093,T01,LDIAM,11.7,mm,280,TA5
S0093,T02,LDIAM,10.2,mm,280,TA5
S0093,,SUMDIAM,21.8,mm,280,TA5
S0093,T01,LDIAM,11.7,mm,336,TA6
S0093,T02,LDIAM,10.2,mm,336,TA6
S0093,,SUMDIAM,21.8,mm,336,TA6
S0093,T01,LDIAM,11.7,mm,392,TA7
S0093,T02,LDIAM,10.2,mm,392,TA7
S0093,,SUMDIAM,21.8,mm,392,TA7
S0093,T01,LDIAM,11.7,mm,448,TA8
S0093,T02,LDIAM,10.2,mm,448,TA8
S0093,,SUMDIAM,21.8,mm,448,TA8
S0093,T01,LDIAM,11.7,mm,504,TA9
S0093,T02,LDIAM,10.2,mm,504,TA9
S0093,,SUMDIAM,21.8,mm,504,TA9
S0095,T01,LDIAM,46.2,mm,0,BASELINE
S0095,T02,LDIAM,35.8,mm,0,BASELINE
S0095,T03,LDIAM,37.8,mm,0,BASELINE
S0095,T04,LDIAM,45.6,mm,0,BASELINE
S0095,T05,LDIAM,59.5,mm,0,BASELINE
S0095,,SUMDIAM,224.9,mm,0,BASELINE
S0095,T01,LDIAM,57.8,mm,56,TA1
S0095,T02,LDIAM,44.8,mm,56,TA1
S0095,T03,LDIAM,47.2,mm,56,TA1
S0095,T04,LDIAM,57.0,mm,56,TA1
S0095,T05,LDIAM,74.4,mm,56,TA1
S0095,,SUMDIAM,281.1,mm,56,TA1
S0098,T01,LDIAM,43.9,mm,0,BASELINE
S0098,,SUMDIAM,43.9,mm,0,BASELINE
S0098,T01,LDIAM,32.7,mm,56,TA1
S0098,,SUMDIAM,32.7,mm,56,TA1
S0098,T01,LDIAM,21.5,mm,112,TA2
S0098,,SUMDIAM,21.5,mm,112,TA2
S0098,T01,LDIAM,28.0,mm,168,TA3
S0098,,SUMDIAM,28.0,mm,168,TA3
S0098,T01,LDIAM,28.0,mm,224,TA4
S0098,,SUMDIAM,28.0,mm,224,TA4
S0098,T01,LDIAM,28.0,mm,280,TA5
S0098,,SUMDIAM,28.0,mm,280,TA5
S0098,T01,LDIAM,28.0,mm,336,TA6
S0098,,SUMDIAM,28.0,mm,336,TA6
S0098,T01,LDIAM,28.0,mm,392,TA7
S0098,,SUMDIAM,28.0,mm,392,TA7
S0098,T01,LDIAM,28.0,mm,448,TA8
S0098,,SUMDIAM,28.0,mm,448,TA8
S0098,T01,LDIAM,28.0,mm,504,TA9
S0098,,SUMDIAM,28.0,mm,504,TA9
S0098,T01,LDIAM,28.0,mm,560,TA10
S0098,,SUMDIAM,28.0,mm,560,TA10
S0098,T01,LDIAM,28.0,mm,616,TA11
S0098,,SUMDIAM,28.0,mm,616,TA11
S0098,T01,LDIAM,28.0,mm,672,TA12
S0098,,SUMDIAM,28.0,mm,672,TA12
S0100,T01,LDIAM,10.5,mm,0,BASELINE
S0100,T02,LDIAM,27.3,mm,0,BASELINE
S0100,,SUMDIAM,37.8,mm,0,BASELINE
S0100,T01,LDIAM,9.4,mm,56,TA1
S0100,T02,LDIAM,24.4,mm,56,TA1
S0100,,SUMDIAM,33.8,mm,56,TA1
S0100,T01,LDIAM,8.3,mm,112,TA2
S0100,T02,LDIAM,21.5,mm,112,TA2
S0100,,SUMDIAM,29.8,mm,112,TA2
S0100,T01,LDIAM,8.3,mm,168,TA3
S0100,T02,LDIAM,21.5,mm,168,TA3
S0100,,SUMDIAM,29.8,mm,168,TA3
S0100,T01,LDIAM,10.5,mm,224,TA4
S0100,T02,LDIAM,27.2,mm,224,TA4
S0100,,SUMDIAM,37.6,mm,224,TA4
S0102,T01,LDIAM,10.2,mm,0,BASELINE
S0102,T02,LDIAM,18.8,mm,0,BASELINE
S0102,T03,LDIAM,36.0,mm,0,BASELINE
S0102,T04,LDIAM,42.4,mm,0,BASELINE
S0102,,SUMDIAM,107.4,mm,0,BASELINE
S0102,T01,LDIAM,6.6,mm,56,TA1
S0102,T02,LDIAM,12.1,mm,56,TA1
S0102,T03,LDIAM,23.1,mm,56,TA1
S0102,T04,LDIAM,27.2,mm,56,TA1
S0102,,SUMDIAM,69.0,mm,56,TA1
S0102,T01,LDIAM,2.9,mm,112,TA2
S0102,T02,LDIAM,5.3,mm,112,TA2
S0102,T03,LDIAM,10.2,mm,112,TA2
S0102,T04,LDIAM,12.1,mm,112,TA2
S0102,,SUMDIAM,30.5,mm,112,TA2
S0102,T01,LDIAM,2.9,mm,168,TA3
S0102,T02,LDIAM,5.3,mm,168,TA3
S0102,T03,LDIAM,10.2,mm,168,TA3
S0102,T04,LDIAM,12.1,mm,168,TA3
S0102,,SUMDIAM,30.5,mm,168,TA3
S0108,T01,LDIAM,15.0,mm,0,BASELINE
S0108,T02,LDIAM,19.6,mm,0,BASELINE
S0108,T03,LDIAM,59.8,mm,0,BASELINE
S0108,T04,LDIAM,42.2,mm,0,BASELINE
S0108,,SUMDIAM,136.6,mm,0,BASELINE
S0108,T01,LDIAM,11.0,mm,56,TA1
S0108,T02,LDIAM,14.4,mm,56,TA1
S0108,T03,LDIAM,44.0,mm,56,TA1
S0108,T04,LDIAM,31.0,mm,56,TA1
S0108,,SUMDIAM,100.5,mm,56,TA1
S0108,T01,LDIAM,14.0,mm,112,TA2
S0108,T02,LDIAM,18.3,mm,112,TA2
S0108,T03,LDIAM,55.8,mm,112,TA2
S0108,T04,LDIAM,39.4,mm,112,TA2
S0108,,SUMDIAM,127.4,mm,112,TA2
S0114,T01,LDIAM,42.1,mm,0,BASELINE
S0114,T02,LDIAM,54.7,mm,0,BASELINE
S0114,T03,LDIAM,20.4,mm,0,BASELINE
S0114,T04,LDIAM,36.6,mm,0,BASELINE
S0114,,SUMDIAM,153.8,mm,0,BASELINE
S0114,T01,LDIAM,36.8,mm,56,TA1
S0114,T02,LDIAM,47.8,mm,56,TA1
S0114,T03,LDIAM,17.8,mm,56,TA1
S0114,T04,LDIAM,32.0,mm,56,TA1
S0114,,SUMDIAM,134.4,mm,56,TA1
S0114,T01,LDIAM,46.3,mm,112,TA2
S0114,T02,LDIAM,60.1,mm,112,TA2
S0114,T03,LDIAM,22.4,mm,112,TA2
S0114,T04,LDIAM,40.2,mm,112,TA2
S0114,,SUMDIAM,169.0,mm,112,TA2
S0117,T01,LDIAM,26.5,mm,0,BASELINE
S0117,T02,LDIAM,45.1,mm,0,BASELINE
S0117,T03,LDIAM,48.0,mm,0,BASELINE
S0117,T04,LDIAM,28.7,mm,0,BASELINE
S0117,T05,LDIAM,48.5,mm,0,BASELINE
S0117,,SUMDIAM,196.8,mm,0,BASELINE
S0117,T01,LDIAM,20.6,mm,56,TA1
S0117,T02,LDIAM,35.1,mm,56,TA1
S0117,T03,LDIAM,37.3,mm,56,TA1
S0117,T04,LDIAM,22.3,mm,56,TA1
S0117,T05,LDIAM,37.7,mm,56,TA1
S0117,,SUMDIAM,153.1,mm,56,TA1
S0117,T01,LDIAM,14.7,mm,112,TA2
S0117,T02,LDIAM,25.1,mm,112,TA2
S0117,T03,LDIAM,26.7,mm,112,TA2
S0117,T04,LDIAM,16.0,mm,112,TA2
S0117,T05,LDIAM,27.0,mm,112,TA2
S0117,,SUMDIAM,109.4,mm,112,TA2
S0117,T01,LDIAM,14.7,mm,168,TA3
S0117,T02,LDIAM,25.1,mm,168,TA3
S0117,T03,LDIAM,26.7,mm,168,TA3
S0117,T04,LDIAM,16.0,mm,168,TA3
S0117,T05,LDIAM,27.0,mm,168,TA3
S0117,,SUMDIAM,109.4,mm,168,TA3
S0117,T01,LDIAM,14.7,mm,224,TA4
S0117,T02,LDIAM,25.1,mm,224,TA4
S0117,T03,LDIAM,26.7,mm,224,TA4
S0117,T04,LDIAM,16.0,mm,224,TA4
S0117,T05,LDIAM,27.0,mm,224,TA4
S0117,,SUMDIAM,109.4,mm,224,TA4
S0124,T01,LDIAM,46.2,mm,0,BASELINE
S0124,T02,LDIAM,48.4,mm,0,BASELINE
S0124,T03,LDIAM,36.6,mm,0,BASELINE
S0124,,SUMDIAM,131.2,mm,0,BASELINE
S0124,T01,LDIAM,44.7,mm,56,TA1
S0124,T02,LDIAM,46.8,mm,56,TA1
S0124,T03,LDIAM,35.4,mm,56,TA1
S0124,,SUMDIAM,126.9,mm,56,TA1
S0124,T01,LDIAM,43.2,mm,112,TA2
S0124,T02,LDIAM,45.2,mm,112,TA2
S0124,T03,LDIAM,34.2,mm,112,TA2
S0124,,SUMDIAM,122.6,mm,112,TA2
S0124,T01,LDIAM,54.1,mm,168,TA3
S0124,T02,LDIAM,56.7,mm,168,TA3
S0124,T03,LDIAM,42.9,mm,168,TA3
S0124,,SUMDIAM,153.7,mm,168,TA3
S0135,T01,LDIAM,32.7,mm,0,BASELINE
S0135,,SUMDIAM,32.7,mm,0,BASELINE
S0135,T01,LDIAM,18.9,mm,56,TA1
S0135,,SUMDIAM,18.9,mm,56,TA1
S0135,T01,LDIAM,5.2,mm,112,TA2
S0135,,SUMDIAM,5.2,mm,112,TA2
S0135,T01,LDIAM,11.2,mm,168,TA3
S0135,,SUMDIAM,11.2,mm,168,TA3
S0135,T01,LDIAM,11.2,mm,224,TA4
S0135,,SUMDIAM,11.2,mm,224,TA4
S0135,T01,LDIAM,11.2,mm,280,TA5
S0135,,SUMDIAM,11.2,mm,280,TA5
S0135,T01,LDIAM,11.2,mm,336,TA6
S0135,,SUMDIAM,11.2,mm,336,TA6
S0135,T01,LDIAM,11.2,mm,392,TA7
S0135,,SUMDIAM,11.2,mm,392,TA7
S0135,T01,LDIAM,11.2,mm,448,TA8
S0135,,SUMDIAM,11.2,mm,448,TA8
S0135,T01,LDIAM,11.2,mm,504,TA9
S0135,,SUMDIAM,11.2,mm,504,TA9
S0135,T01,LDIAM,11.2,mm,560,TA10
S0135,,SUMDIAM,11.2,mm,560,TA10
S0135,T01,LDIAM,11.2,mm,616,TA11
S0135,,SUMDIAM,11.2,mm,616,TA11
S0136,T01,LDIAM,17.6,mm,0,BASELINE
S0136,T02,LDIAM,48.1,mm,0,BASELINE
S0136,T03,LDIAM,48.1,mm,0,BASELINE
S0136,,SUMDIAM,113.8,mm,0,BASELINE
S0136,T01,LDIAM,17.7,mm,56,TA1
S0136,T02,LDIAM,48.4,mm,56,TA1
S0136,T03,LDIAM,48.4,mm,56,TA1
S0136,,SUMDIAM,114.4,mm,56,TA1
S0146,T01,LDIAM,57.7,mm,0,BASELINE
S0146,T02,LDIAM,42.9,mm,0,BASELINE
S0146,T03,LDIAM,59.0,mm,0,BASELINE
S0146,T04,LDIAM,10.7,mm,0,BASELINE
S0146,,SUMDIAM,170.3,mm,0,BASELINE
S0146,T01,LDIAM,42.3,mm,56,TA1
S0146,T02,LDIAM,31.4,mm,56,TA1
S0146,T03,LDIAM,43.2,mm,56,TA1
S0146,T04,LDIAM,7.8,mm,56,TA1
S0146,,SUMDIAM,124.8,mm,56,TA1
S0151,T01,LDIAM,24.9,mm,0,BASELINE
S0151,T02,LDIAM,29.4,mm,0,BASELINE
S0151,T03,LDIAM,40.8,mm,0,BASELINE
S0151,T04,LDIAM,19.4,mm,0,BASELINE
S0151,T05,LDIAM,14.4,mm,0,BASELINE
S0151,,SUMDIAM,128.9,mm,0,BASELINE
S0151,T01,LDIAM,14.9,mm,56,TA1
S0151,T02,LDIAM,17.6,mm,56,TA1
S0151,T03,LDIAM,24.5,mm,56,TA1
S0151,T04,LDIAM,11.6,mm,56,TA1
S0151,T05,LDIAM,8.6,mm,56,TA1
S0151,,SUMDIAM,77.3,mm,56,TA1
S0151,T01,LDIAM,4.9,mm,112,TA2
S0151,T02,LDIAM,5.8,mm,112,TA2
S0151,T03,LDIAM,8.1,mm,112,TA2
S0151,T04,LDIAM,3.9,mm,112,TA2
S0151,T05,LDIAM,2.9,mm,112,TA2
S0151,,SUMDIAM,25.6,mm,112,TA2
S0151,T01,LDIAM,4.9,mm,168,TA3
S0151,T02,LDIAM,5.8,mm,168,TA3
S0151,T03,LDIAM,8.1,mm,168,TA3
S0151,T04,LDIAM,3.9,mm,168,TA3
S0151,T05,LDIAM,2.9,mm,168,TA3
S0151,,SUMDIAM,25.6,mm,168,TA3
S0151,T01,LDIAM,4.9,mm,224,TA4
S0151,T02,LDIAM,5.8,mm,224,TA4
S0151,T03,LDIAM,8.1,mm,224,TA4
S0151,T04,LDIAM,3.9,mm,224,TA4
S0151,T05,LDIAM,2.9,mm,224,TA4
S0151,,SUMDIAM,25.6,mm,224,TA4
S0152,T01,LDIAM,14.0,mm,0,BASELINE
S0152,T02,LDIAM,41.5,mm,0,BASELINE
S0152,T03,LDIAM,20.6,mm,0,BASELINE
S0152,,SUMDIAM,76.1,mm,0,BASELINE
S0152,T01,LDIAM,14.2,mm,56,TA1
S0152,T02,LDIAM,42.0,mm,56,TA1
S0152,T03,LDIAM,20.8,mm,56,TA1
S0152,,SUMDIAM,77.0,mm,56,TA1
S0152,T01,LDIAM,14.3,mm,112,TA2
S0152,T02,LDIAM,42.5,mm,112,TA2
S0152,T03,LDIAM,21.1,mm,112,TA2
S0152,,SUMDIAM,77.9,mm,112,TA2
S0152,T01,LDIAM,14.3,mm,168,TA3
S0152,T02,LDIAM,42.5,mm,168,TA3
S0152,T03,LDIAM,21.1,mm,168,TA3
S0152,,SUMDIAM,77.9,mm,168,TA3
S0172,T01,LDIAM,58.2,mm,0,BASELINE
S0172,T02,LDIAM,16.1,mm,0,BASELINE
S0172,T03,LDIAM,34.4,mm,0,BASELINE
S0172,,SUMDIAM,108.7,mm,0,BASELINE
S0172,T01,LDIAM,46.9,mm,56,TA1
S0172,T02,LDIAM,13.0,mm,56,TA1
S0172,T03,LDIAM,27.7,mm,56,TA1
S0172,,SUMDIAM,87.6,mm,56,TA1
S0172,T01,LDIAM,35.6,mm,112,TA2
S0172,T02,LDIAM,9.8,mm,112,TA2
S0172,T03,LDIAM,21.0,mm,112,TA2
S0172,,SUMDIAM,66.4,mm,112,TA2
S0181,T01,LDIAM,21.0,mm,0,BASELINE
S0181,T02,LDIAM,40.4,mm,0,BASELINE
S0181,T03,LDIAM,26.6,mm,0,BASELINE
S0181,T04,LDIAM,16.4,mm,0,BASELINE
S0181,,SUMDIAM,104.4,mm,0,BASELINE
S0181,T01,LDIAM,18.9,mm,56,TA1
S0181,T02,LDIAM,36.4,mm,56,TA1
S0181,T03,LDIAM,24.0,mm,56,TA1
S0181,T04,LDIAM,14.8,mm,56,TA1
S0181,,SUMDIAM,94.2,mm,56,TA1
S0181,T01,LDIAM,16.9,mm,112,TA2
S0181,T02,LDIAM,32.5,mm,112,TA2
S0181,T03,LDIAM,21.4,mm,112,TA2
S0181,T04,LDIAM,13.2,mm,112,TA2
S0181,,SUMDIAM,83.9,mm,112,TA2
S0181,T01,LDIAM,16.9,mm,168,TA3
S0181,T02,LDIAM,32.5,mm,168,TA3
S0181,T03,LDIAM,21.4,mm,168,TA3
S0181,T04,LDIAM,13.2,mm,168,TA3
S0181,,SUMDIAM,83.9,mm,168,TA3
S0181,T01,LDIAM,16.9,mm,224,TA4
S0181,T02,LDIAM,32.5,mm,224,TA4
S0181,T03,LDIAM,21.4,mm,224,TA4
S0181,T04,LDIAM,13.2,mm,224,TA4
S0181,,SUMDIAM,83.9,mm,224,TA4
S0181,T01,LDIAM,16.9,mm,280,TA5
S0181,T02,LDIAM,32.5,mm,280,TA5
S0181,T03,LDIAM,21.4,mm,280,TA5
S0181,T04,LDIAM,13.2,mm,280,TA5
S0181,,SUMDIAM,83.9,mm,280,TA5
S0181,T01,LDIAM,16.9,mm,336,TA6
S0181,T02,LDIAM,32.5,mm,336,TA6
S0181,T03,LDIAM,21.4,mm,336,TA6
S0181,T04,LDIAM,13.2,mm,336,TA6
S0181,,SUMDIAM,83.9,mm,336,TA6
S0181,T01,LDIAM,16.9,mm,392,TA7
S0181,T02,LDIAM,32.5,mm,392,TA7
S0181,T03,LDIAM,21.4,mm,392,TA7
S0181,T04,LDIAM,13.2,mm,392,TA7
S0181,,SUMDIAM,83.9,mm,392,TA7
S0181,T01,LDIAM,16.9,mm,448,TA8
S0181,T02,LDIAM,32.5,mm,448,TA8
S0181,T03,LDIAM,21.4,mm,448,TA8
S0181,T04,LDIAM,13.2,mm,448,TA8
S0181,,SUMDIAM,83.9,mm,448,TA8
S0181,T01,LDIAM,16.9,mm,504,TA9
S0181,T02,LDIAM,32.5,mm,504,TA9
S0181,T03,LDIAM,21.4,mm,504,TA9
S0181,T04,LDIAM,13.2,mm,504,TA9
S0181,,SUMDIAM,83.9,mm,504,TA9
S0181,T01,LDIAM,16.9,mm,560,TA10
S0181,T02,LDIAM,32.5,mm,560,TA10
S0181,T03,LDIAM,21.4,mm,560,TA10
S0181,T04,LDIAM,13.2,mm,560,TA10
S0181,,SUMDIAM,83.9,mm,560,TA10
S0181,T01,LDIAM,16.9,mm,616,TA11
S0181,T02,LDIAM,32.5,mm,616,TA11
S0181,T03,LDIAM,21.4,mm,616,TA11
S0181,T04,LDIAM,13.2,mm,616,TA11
S0181,,SUMDIAM,83.9,mm,616,TA11
S0181,T01,LDIAM,16.9,mm,672,TA12
S0181,T02,LDIAM,32.5,mm,672,TA12
S0181,T03,LDIAM,21.4,mm,672,TA12
S0181,T04,LDIAM,13.2,mm,672,TA12
S0181,,SUMDIAM,83.9,mm,672,TA12
S0181,T01,LDIAM,16.9,mm,728,TA13
S0181,T02,LDIAM,32.5,mm,728,TA13
S0181,T03,LDIAM,21.4,mm,728,TA13
S0181,T04,LDIAM,13.2,mm,728,TA13
S0181,,SUMDIAM,83.9,mm,728,TA13
S0181,T01,LDIAM,16.9,mm,784,TA14
S0181,T02,LDIAM,32.5,mm,784,TA14
S0181,T03,LDIAM,21.4,mm,784,TA14
S0181,T04,LDIAM,13.2,mm,784,TA14
S0181,,SUMDIAM,83.9,mm,784,TA14
S0181,T01,LDIAM,21.3,mm,840,TA15
S0181,T02,LDIAM,41.0,mm,840,TA15
S0181,T03,LDIAM,27.0,mm,840,TA15
S0181,T04,LDIAM,16.6,mm,840,TA15
S0181,,SUMDIAM,105.9,mm,840,TA15
S0182,T01,LDIAM,38.7,mm,0,BASELINE
S0182,,SUMDIAM,38.7,mm,0,BASELINE
S0182,T01,LDIAM,20.6,mm,56,TA1
S0182,,SUMDIAM,20.6,mm,56,TA1
S0182,T01,LDIAM,2.6,mm,112,TA2
S0182,,SUMDIAM,2.6,mm,112,TA2
S0182,T01,LDIAM,2.6,mm,168,TA3
S0182,,SUMDIAM,2.6,mm,168,TA3
S0182,T01,LDIAM,2.6,mm,224,TA4
S0182,,SUMDIAM,2.6,mm,224,TA4
S0182,T01,LDIAM,2.6,mm,280,TA5
S0182,,SUMDIAM,2.6,mm,280,TA5
S0182,T01,LDIAM,8.6,mm,336,TA6
S0182,,SUMDIAM,8.6,mm,336,TA6
S0182,T01,LDIAM,8.6,mm,392,TA7
S0182,,SUMDIAM,8.6,mm,392,TA7
S0182,T01,LDIAM,8.6,mm,448,TA8
S0182,,SUMDIAM,8.6,mm,448,TA8
