USUBJID,TRLNKID,TRTESTCD,TRORRES,TRORRESU,TRDY,VISIT
S0002,T01,LDIAM,34.6,mm,0,BASELINE
S0002,T02,LDIAM,35.4,mm,0,BASELINE
S0002,T03,LDIAM,40.9,mm,0,BASELINE
S0002,T04,LDIAM,24.7,mm,0,BASELINE
S0002,T05,LDIAM,16.6,mm,0,BASELINE
S0002,,SUMDIAM,152.2,mm,0,BASELINE
S0002,T01,LDIAM,43.2,mm,63,TA1
S0002,T02,LDIAM,44.2,mm,63,TA1
S0002,T03,LDIAM,51.1,mm,63,TA1
S0002,T04,LDIAM,30.9,mm,63,TA1
S0002,T05,LDIAM,20.8,mm,63,TA1
S0002,,SUMDIAM,190.2,mm,63,TA1
S0005,T01,LDIAM,31.3,mm,0,BASELINE
S0005,T02,LDIAM,53.5,mm,0,BASELINE
S0005,T03,LDIAM,53.2,mm,0,BASELINE
S0005,T04,LDIAM,44.7,mm,0,BASELINE
S0005,T05,LDIAM,21.7,mm,0,BASELINE
S0005,,SUMDIAM,204.4,mm,0,BASELINE
S0005,T01,LDIAM,39.1,mm,63,TA1
S0005,T02,LDIAM,66.9,mm,63,TA1
S0005,T03,LDIAM,66.5,mm,63,TA1
S0005,T04,LDIAM,55.9,mm,63,TA1
S0005,T05,LDIAM,27.1,mm,63,TA1
S0005,,SUMDIAM,255.5,mm,63,TA1
S0009,T01,LDIAM,57.1,mm,0,BASELINE
S0009,T02,LDIAM,59.2,mm,0,BASELINE
S0009,T03,LDIAM,29.0,mm,0,BASELINE
S0009,T04,LDIAM,19.5,mm,0,BASELINE
S0009,,SUMDIAM,164.8,mm,0,BASELINE
S0009,T01,LDIAM,28.6,mm,63,TA1
S0009,T02,LDIAM,29.6,mm,63,TA1
S0009,T03,LDIAM,14.5,mm,63,TA1
S0009,T04,LDIAM,9.8,mm,63,TA1
S0009,,SUMDIAM,82.4,mm,63,TA1
S0009,T01,LDIAM,0.0,mm,126,TA2
S0009,T02,LDIAM,0.0,mm,126,TA2
S0009,T03,LDIAM,0.0,mm,126,TA2
S0009,T04,LDIAM,0.0,mm,126,TA2
S0009,,SUMDIAM,0.0,mm,126,TA2
S0009,T01,LDIAM,0.0,mm,189,TA3
S0009,T02,LDIAM,0.0,mm,189,TA3
S0009,T03,LDIAM,0.0,mm,189,TA3
S0009,T04,LDIAM,0.0,mm,189,TA3
S0009,,SUMDIAM,0.0,mm,189,TA3
S0009,T01,LDIAM,2.9,mm,252,TA4
S0009,T02,LDIAM,3.0,mm,252,TA4
S0009,T03,LDIAM,1.5,mm,252,TA4
S0009,T04,LDIAM,1.0,mm,252,TA4
S0009,,SUMDIAM,8.2,mm,252,TA4
S0009,T01,LDIAM,2.9,mm,315,TA5
S0009,T02,LDIAM,3.0,mm,315,TA5
S0009,T03,LDIAM,1.5,mm,315,TA5
S0009,T04,LDIAM,1.0,mm,315,TA5
S0009,,SUMDIAM,8.2,mm,315,TA5
S0009,T01,LDIAM,2.9,mm,378,TA6
S0009,T02,LDIAM,3.0,mm,378,TA6
S0009,T03,LDIAM,1.5,mm,378,TA6
S0009,T04,LDIAM,1.0,mm,378,TA6
S0009,,SUMDIAM,8.2,mm,378,TA6
S0009,T01,LDIAM,2.9,mm,441,TA7
S0009,T02,LDIAM,3.0,mm,441,TA7
S0009,T03,LDIAM,1.5,mm,441,TA7
S0009,T04,LDIAM,1.0,mm,441,TA7
S0009,,SUMDIAM,8.2,mm,441,TA7
S0009,T01,LDIAM,2.9,mm,504,TA8
S0009,T02,LDIAM,3.0,mm,504,TA8
S0009,T03,LDIAM,1.5,mm,504,TA8
S0009,T04,LDIAM,1.0,mm,504,TA8
S0009,,SUMDIAM,8.2,mm,504,TA8
S0009,T01,LDIAM,2.9,mm,567,TA9
S0009,T02,LDIAM,3.0,mm,567,TA9
S0009,T03,LDIAM,1.5,mm,567,TA9
S0009,T04,LDIAM,1.0,mm,567,TA9
S0009,,SUMDIAM,8.2,mm,567,TA9
S0009,T01,LDIAM,2.9,mm,630,TA10
S0009,T02,LDIAM,3.0,mm,630,TA10
S0009,T03,LDIAM,1.5,mm,630,TA10
S0009,T04,LDIAM,1.0,mm,630,TA10
S0009,,SUMDIAM,8.2,mm,630,TA10
S0009,T01,LDIAM,2.9,mm,693,TA11
S0009,T02,LDIAM,3.0,mm,693,TA11
S0009,T03,LDIAM,1.5,mm,693,TA11
S0009,T04,LDIAM,1.0,mm,693,TA11
S0009,,SUMDIAM,8.2,mm,693,TA11
S0009,T01,LDIAM,2.9,mm,756,TA12
S0009,T02,LDIAM,3.0,mm,756,TA12
S0009,T03,LDIAM,1.5,mm,756,TA12
S0009,T04,LDIAM,1.0,mm,756,TA12
S0009,,SUMDIAM,8.2,mm,756,TA12
S0009,T01,LDIAM,2.9,mm,819,TA13
S0009,T02,LDIAM,3.0,mm,819,TA13
S0009,T03,LDIAM,1.5,mm,819,TA13
S0009,T04,LDIAM,1.0,mm,819,TA13
S0009,,SUMDIAM,8.2,mm,819,TA13
S0009,T01,LDIAM,2.9,mm,882,TA14
S0009,T02,LDIAM,3.0,mm,882,TA14
S0009,T03,LDIAM,1.5,mm,882,TA14
S0009,T04,LDIAM,1.0,mm,882,TA14
S0009,,SUMDIAM,8.2,mm,882,TA14
S0009,T01,LDIAM,2.9,mm,945,TA15
S0009,T02,LDIAM,3.0,mm,945,TA15
S0009,T03,LDIAM,1.5,mm,945,TA15
S0009,T04,LDIAM,1.0,mm,945,TA15
S0009,,SUMDIAM,8.2,mm,945,TA15
S0009,T01,LDIAM,2.9,mm,1008,TA16
S0009,T02,LDIAM,3.0,mm,1008,TA16
S0009,T03,LDIAM,1.5,mm,1008,TA16
S0009,T04,LDIAM,1.0,mm,1008,TA16
S0009,,SUMDIAM,8.2,mm,1008,TA16
S0009,T01,LDIAM,2.9,mm,1071,TA17
S0009,T02,LDIAM,3.0,mm,1071,TA17
S0009,T03,LDIAM,1.5,mm,1071,TA17
S0009,T04,LDIAM,1.0,mm,1071,TA17
S0009,,SUMDIAM,8.2,mm,1071,TA17
S0010,T01,LDIAM,12.6,mm,0,BASELINE
S0010,T02,LDIAM,56.1,mm,0,BASELINE
S0010,T03,LDIAM,37.2,mm,0,BASELINE
S0010,,SUMDIAM,105.9,mm,0,BASELINE
S0010,T01,LDIAM,6.3,mm,63,TA1
S0010,T02,LDIAM,28.1,mm,63,TA1
S0010,T03,LDIAM,18.6,mm,63,TA1
S0010,,SUMDIAM,53.0,mm,63,TA1
S0010,T01,LDIAM,0.0,mm,126,TA2
S0010,T02,LDIAM,0.0,mm,126,TA2
S0010,T03,LDIAM,0.0,mm,126,TA2
S0010,,SUMDIAM,0.0,mm,126,TA2
S0010,T01,LDIAM,0.0,mm,189,TA3
S0010,T02,LDIAM,0.0,mm,189,TA3
S0010,T03,LDIAM,0.0,mm,189,TA3
S0010,,SUMDIAM,0.0,mm,189,TA3
S0010,T01,LDIAM,0.7,mm,252,TA4
S0010,T02,LDIAM,3.2,mm,252,TA4
S0010,T03,LDIAM,2.1,mm,252,TA4
S0010,,SUMDIAM,6.0,mm,252,TA4
S0010,T01,LDIAM,0.7,mm,315,TA5
S0010,T02,LDIAM,3.2,mm,315,TA5
S0010,T03,LDIAM,2.1,mm,315,TA5
S0010,,SUMDIAM,6.0,mm,315,TA5
S0012,T01,LDIAM,18.0,mm,0,BASELINE
S0012,,SUMDIAM,18.0,mm,0,BASELINE
S0012,T01,LDIAM,9.0,mm,63,TA1
S0012,,SUMDIAM,9.0,mm,63,TA1
S0012,T01,LDIAM,0.0,mm,126,TA2
S0012,,SUMDIAM,0.0,mm,126,TA2
S0012,T01,LDIAM,0.0,mm,189,TA3
S0012,,SUMDIAM,0.0,mm,189,TA3
S0012,T01,LDIAM,6.0,mm,252,TA4
S0012,,SUMDIAM,6.0,mm,252,TA4
S0012,T01,LDIAM,6.0,mm,315,TA5
S0012,,SUMDIAM,6.0,mm,315,TA5
S0012,T01,LDIAM,6.0,mm,378,TA6
S0012,,SUMDIAM,6.0,mm,378,TA6
S0012,T01,LDIAM,6.0,mm,441,TA7
S0012,,SUMDIAM,6.0,mm,441,TA7
S0012,T01,LDIAM,6.0,mm,504,TA8
S0012,,SUMDIAM,6.0,mm,504,TA8
S0012,T01,LDIAM,6.0,mm,567,TA9
S0012,,SUMDIAM,6.0,mm,567,TA9
S0012,T01,LDIAM,6.0,mm,630,TA10
S0012,,SUMDIAM,6.0,mm,630,TA10
S0014,T01,LDIAM,32.4,mm,0,BASELINE
S0014,T02,LDIAM,26.2,mm,0,BASELINE
S0014,T03,LDIAM,32.0,mm,0,BASELINE
S0014,T04,LDIAM,28.6,mm,0,BASELINE
S0014,,SUMDIAM,119.2,mm,0,BASELINE
S0014,T01,LDIAM,40.5,mm,63,TA1
S0014,T02,LDIAM,32.8,mm,63,TA1
S0014,T03,LDIAM,40.0,mm,63,TA1
S0014,T04,LDIAM,35.8,mm,63,TA1
S0014,,SUMDIAM,149.0,mm,63,TA1
S0019,T01,LDIAM,22.9,mm,0,BASELINE
S0019,T02,LDIAM,23.5,mm,0,BASELINE
S0019,,SUMDIAM,46.4,mm,0,BASELINE
S0019,T01,LDIAM,21.9,mm,63,TA1
S0019,T02,LDIAM,22.5,mm,63,TA1
S0019,,SUMDIAM,44.4,mm,63,TA1
S0019,T01,LDIAM,20.9,mm,126,TA2
S0019,T02,LDIAM,21.5,mm,126,TA2
S0019,,SUMDIAM,42.4,mm,126,TA2
S0019,T01,LDIAM,20.9,mm,189,TA3
S0019,T02,LDIAM,21.5,mm,189,TA3
S0019,,SUMDIAM,42.4,mm,189,TA3
S0019,T01,LDIAM,20.9,mm,252,TA4
S0019,T02,LDIAM,21.5,mm,252,TA4
S0019,,SUMDIAM,42.4,mm,252,TA4
S0019,T01,LDIAM,26.3,mm,315,TA5
S0019,T02,LDIAM,26.9,mm,315,TA5
S0019,,SUMDIAM,53.2,mm,315,TA5
S0022,T01,LDIAM,54.6,mm,0,BASELINE
S0022,T02,LDIAM,40.9,mm,0,BASELINE
S0022,T03,LDIAM,46.4,mm,0,BASELINE
S0022,T04,LDIAM,17.2,mm,0,BASELINE
S0022,T05,LDIAM,24.7,mm,0,BASELINE
S0022,,SUMDIAM,183.8,mm,0,BASELINE
S0024,T01,LDIAM,42.7,mm,0,BASELINE
S0024,T02,LDIAM,20.5,mm,0,BASELINE
S0024,T03,LDIAM,24.3,mm,0,BASELINE
S0024,T04,LDIAM,46.4,mm,0,BASELINE
S0024,,SUMDIAM,133.9,mm,0,BASELINE
S0024,T01,LDIAM,21.4,mm,63,TA1
S0024,T02,LDIAM,10.2,mm,63,TA1
S0024,T03,LDIAM,12.2,mm,63,TA1
S0024,T04,LDIAM,23.2,mm,63,TA1
S0024,,SUMDIAM,67.0,mm,63,TA1
S0024,T01,LDIAM,27.8,mm,126,TA2
S0024,T02,LDIAM,13.3,mm,126,TA2
S0024,T03,LDIAM,15.8,mm,126,TA2
S0024,T04,LDIAM,30.2,mm,126,TA2
S0024,,SUMDIAM,87.1,mm,126,TA2
S0024,T01,LDIAM,27.8,mm,189,TA3
S0024,T02,LDIAM,13.3,mm,189,TA3
S0024,T03,LDIAM,15.8,mm,189,TA3
S0024,T04,LDIAM,30.2,mm,189,TA3
S0024,,SUMDIAM,87.1,mm,189,TA3
S0024,T01,LDIAM,27.8,mm,252,TA4
S0024,T02,LDIAM,13.3,mm,252,TA4
S0024,T03,LDIAM,15.8,mm,252,TA4
S0024,T04,LDIAM,30.2,mm,252,TA4
S0024,,SUMDIAM,87.1,mm,252,TA4
S0024,T01,LDIAM,27.8,mm,315,TA5
S0024,T02,LDIAM,13.3,mm,315,TA5
S0024,T03,LDIAM,15.8,mm,315,TA5
S0024,T04,LDIAM,30.2,mm,315,TA5
S0024,,SUMDIAM,87.1,mm,315,TA5
S0024,T01,LDIAM,27.8,mm,378,TA6
S0024,T02,LDIAM,13.3,mm,378,TA6
S0024,T03,LDIAM,15.8,mm,378,TA6
S0024,T04,LDIAM,30.2,mm,378,TA6
S0024,,SUMDIAM,87.1,mm,378,TA6
S0026,T01,LDIAM,29.5,mm,0,BASELINE
S0026,T02,LDIAM,18.6,mm,0,BASELINE
S0026,T03,LDIAM,22.2,mm,0,BASELINE
S0026,T04,LDIAM,15.8,mm,0,BASELINE
S0026,,SUMDIAM,86.1,mm,0,BASELINE
S0026,T01,LDIAM,36.9,mm,63,TA1
S0026,T02,LDIAM,23.2,mm,63,TA1
S0026,T03,LDIAM,27.8,mm,63,TA1
S0026,T04,LDIAM,19.8,mm,63,TA1
S0026,,SUMDIAM,107.6,mm,63,TA1
S0029,T01,LDIAM,12.4,mm,0,BASELINE
S0029,T02,LDIAM,14.6,mm,0,BASELINE
S0029,T03,LDIAM,25.6,mm,0,BASELINE
S0029,,SUMDIAM,52.6,mm,0,BASELINE
S0034,T01,LDIAM,35.2,mm,0,BASELINE
S0034,T02,LDIAM,44.4,mm,0,BASELINE
S0034,,SUMDIAM,79.6,mm,0,BASELINE
S0034,T01,LDIAM,32.6,mm,63,TA1
S0034,T02,LDIAM,41.1,mm,63,TA1
S0034,,SUMDIAM,73.8,mm,63,TA1
S0035,T01,LDIAM,41.9,mm,0,BASELINE
S0035,,SUMDIAM,41.9,mm,0,BASELINE
S0003,T01,LDIAM,49.1,mm,0,BASELINE
S0003,,SUMDIAM,49.1,mm,0,BASELINE
S0003,T01,LDIAM,52.1,mm,63,TA1
S0003,,SUMDIAM,52.1,mm,63,TA1
S0003,T01,LDIAM,55.2,mm,126,TA2
S0003,,SUMDIAM,55.2,mm,126,TA2
S0003,T01,LDIAM,61.4,mm,189,TA3
S0003,,SUMDIAM,61.4,mm,189,TA3
S0008,T01,LDIAM,36.7,mm,0,BASELINE
S0008,T02,LDIAM,31.8,mm,0,BASELINE
S0008,T03,LDIAM,15.3,mm,0,BASELINE
S0008,,SUMDIAM,83.8,mm,0,BASELINE
S0008,T01,LDIAM,33.0,mm,63,TA1
S0008,T02,LDIAM,28.6,mm,63,TA1
S0008,T03,LDIAM,13.7,mm,63,TA1
S0008,,SUMDIAM,75.3,mm,63,TA1
S0008,T01,LDIAM,29.2,mm,126,TA2
S0008,T02,LDIAM,25.3,mm,126,TA2
S0008,T03,LDIAM,12.2,mm,126,TA2
S0008,,SUMDIAM,66.7,mm,126,TA2
S0013,T01,LDIAM,33.6,mm,0,BASELINE
S0013,T02,LDIAM,33.5,mm,0,BASELINE
S0013,T03,LDIAM,28.4,mm,0,BASELINE
S0013,,SUMDIAM,95.5,mm,0,BASELINE
S0013,T01,LDIAM,42.0,mm,63,TA1
S0013,T02,LDIAM,41.9,mm,63,TA1
S0013,T03,LDIAM,35.5,mm,63,TA1
S0013,,SUMDIAM,119.4,mm,63,TA1
S0020,T01,LDIAM,46.3,mm,0,BASELINE
S0020,T02,LDIAM,19.3,mm,0,BASELINE
S0020,T03,LDIAM,48.1,mm,0,BASELINE
S0020,T04,LDIAM,32.2,mm,0,BASELINE
S0020,T05,LDIAM,23.0,mm,0,BASELINE
S0020,,SUMDIAM,168.9,mm,0,BASELINE
S0020,T01,LDIAM,46.3,mm,63,TA1
S0020,T02,LDIAM,19.3,mm,63,TA1
S0020,T03,LDIAM,48.1,mm,63,TA1
S0020,T04,LDIAM,32.2,mm,63,TA1
S0020,T05,LDIAM,23.0,mm,63,TA1
S0020,,SUMDIAM,169.0,mm,63,TA1
S0021,T01,LDIAM,37.7,mm,0,BASELINE
S0021,,SUMDIAM,37.7,mm,0,BASELINE
S0021,T01,LDIAM,37.4,mm,63,TA1
S0021,,SUMDIAM,37.4,mm,63,TA1
S0021,T01,LDIAM,37.1,mm,126,TA2
S0021,,SUMDIAM,37.1,mm,126,TA2
S0021,T01,LDIAM,46.4,mm,189,TA3
S0021,,SUMDIAM,46.4,mm,189,TA3
S0025,T01,LDIAM,29.9,mm,0,BASELINE
S0025,T02,LDIAM,42.6,mm,0,BASELINE
S0025,T03,LDIAM,15.9,mm,0,BASELINE
S0025,T04,LDIAM,23.5,mm,0,BASELINE
S0025,T05,LDIAM,40.2,mm,0,BASELINE
S0025,,SUMDIAM,152.1,mm,0,BASELINE
S0025,T01,LDIAM,32.5,mm,63,TA1
S0025,T02,LDIAM,46.3,mm,63,TA1
S0025,T03,LDIAM,17.3,mm,63,TA1
S0025,T04,LDIAM,25.6,mm,63,TA1
S0025,T05,LDIAM,43.7,mm,63,TA1
S0025,,SUMDIAM,165.4,mm,63,TA1
S0025,T01,LDIAM,35.1,mm,126,TA2
S0025,T02,LDIAM,50.0,mm,126,TA2
S0025,T03,LDIAM,18.7,mm,126,TA2
S0025,T04,LDIAM,27.6,mm,126,TA2
S0025,T05,LDIAM,47.2,mm,126,TA2
S0025,,SUMDIAM,178.7,mm,126,TA2
S0025,T01,LDIAM,35.1,mm,189,TA3
S0025,T02,LDIAM,50.0,mm,189,TA3
S0025,T03,LDIAM,18.7,mm,189,TA3
S0025,T04,LDIAM,27.6,mm,189,TA3
S0025,T05,LDIAM,47.2,mm,189,TA3
S0025,,SUMDIAM,178.7,mm,189,TA3
S0025,T01,LDIAM,35.1,mm,252,TA4
S0025,T02,LDIAM,50.0,mm,252,TA4
S0025,T03,LDIAM,18.7,mm,252,TA4
S0025,T04,LDIAM,27.6,mm,252,TA4
S0025,T05,LDIAM,47.2,mm,252,TA4
S0025,,SUMDIAM,178.7,mm,252,TA4
S0028,T01,LDIAM,30.0,mm,0,BASELINE
S0028,T02,LDIAM,43.8,mm,0,BASELINE
S0028,T03,LDIAM,57.4,mm,0,BASELINE
S0028,T04,LDIAM,30.0,mm,0,BASELINE
S0028,T05,LDIAM,55.7,mm,0,BASELINE
S0028,,SUMDIAM,216.9,mm,0,BASELINE
S0028,T01,LDIAM,15.0,mm,63,TA1
S0028,T02,LDIAM,21.9,mm,63,TA1
S0028,T03,LDIAM,28.7,mm,63,TA1
S0028,T04,LDIAM,15.0,mm,63,TA1
S0028,T05,LDIAM,27.9,mm,63,TA1
S0028,,SUMDIAM,108.4,mm,63,TA1
S0028,T01,LDIAM,0.0,mm,126,TA2
S0028,T02,LDIAM,0.0,mm,126,TA2
S0028,T03,LDIAM,0.0,mm,126,TA2
S0028,T04,LDIAM,0.0,mm,126,TA2
S0028,T05,LDIAM,0.0,mm,126,TA2
S0028,,SUMDIAM,0.0,mm,126,TA2
S0028,T01,LDIAM,1.5,mm,189,TA3
S0028,T02,LDIAM,2.2,mm,189,TA3
S0028,T03,LDIAM,2.9,mm,189,TA3
S0028,T04,LDIAM,1.5,mm,189,TA3
S0028,T05,LDIAM,2.8,mm,189,TA3
S0028,,SUMDIAM,10.8,mm,189,TA3
S0030,T01,LDIAM,26.6,mm,0,BASELINE
S0030,T02,LDIAM,50.5,mm,0,BASELINE
S0030,,SUMDIAM,77.1,mm,0,BASELINE
S0030,T01,LDIAM,25.1,mm,63,TA1
S0030,T02,LDIAM,47.6,mm,63,TA1
S0030,,SUMDIAM,72.7,mm,63,TA1
S0030,T01,LDIAM,23.5,mm,126,TA2
S0030,T02,LDIAM,44.7,mm,126,TA2
S0030,,SUMDIAM,68.2,mm,126,TA2
S0001,T01,LDIAM,25.3,mm,0,BASELINE
S0001,T02,LDIAM,29.1,mm,0,BASELINE
S0001,,SUMDIAM,54.4,mm,0,BASELINE
S0001,T01,LDIAM,12.7,mm,63,TA1
S0001,T02,LDIAM,14.6,mm,63,TA1
S0001,,SUMDIAM,27.2,mm,63,TA1
S0001,T01,LDIAM,0.0,mm,126,TA2
S0001,T02,LDIAM,0.0,mm,126,TA2
S0001,,SUMDIAM,0.0,mm,126,TA2
S0001,T01,LDIAM,0.0,mm,189,TA3
S0001,T02,LDIAM,0.0,mm,189,TA3
S0001,,SUMDIAM,0.0,mm,189,TA3
S0001,T01,LDIAM,0.0,mm,252,TA4
S0001,T02,LDIAM,0.0,mm,252,TA4
S0001,,SUMDIAM,0.0,mm,252,TA4
S0001,T01,LDIAM,0.0,mm,315,TA5
S0001,T02,LDIAM,0.0,mm,315,TA5
S0001,,SUMDIAM,0.0,mm,315,TA5
S0001,T01,LDIAM,2.8,mm,378,TA6
S0001,T02,LDIAM,3.2,mm,378,TA6
S0001,,SUMDIAM,6.0,mm,378,TA6
S0001,T01,LDIAM,2.8,mm,441,TA7
S0001,T02,LDIAM,3.2,mm,441,TA7
S0001,,SUMDIAM,6.0,mm,441,TA7
S0006,T01,LDIAM,18.5,mm,0,BASELINE
S0006,T02,LDIAM,34.3,mm,0,BASELINE
S0006,T03,LDIAM,50.3,mm,0,BASELINE
S0006,,SUMDIAM,103.1,mm,0,BASELINE
S0023,T01,LDIAM,39.5,mm,0,BASELINE
S0023,T02,LDIAM,13.7,mm,0,BASELINE
S0023,,SUMDIAM,53.2,mm,0,BASELINE
S0023,T01,LDIAM,49.4,mm,63,TA1
S0023,T02,LDIAM,17.1,mm,63,TA1
S0023,,SUMDIAM,66.5,mm,63,TA1
S0027,T01,LDIAM,26.3,mm,0,BASELINE
S0027,T02,LDIAM,29.0,mm,0,BASELINE
S0027,T03,LDIAM,10.5,mm,0,BASELINE
S0027,T04,LDIAM,18.7,mm,0,BASELINE
S0027,T05,LDIAM,14.4,mm,0,BASELINE
S0027,,SUMDIAM,98.9,mm,0,BASELINE
S0027,T01,LDIAM,23.3,mm,63,TA1
S0027,T02,LDIAM,25.7,mm,63,TA1
S0027,T03,LDIAM,9.3,mm,63,TA1
S0027,T04,LDIAM,16.6,mm,63,TA1
S0027,T05,LDIAM,12.8,mm,63,TA1
S0027,,SUMDIAM,87.8,mm,63,TA1
S0027,T01,LDIAM,20.4,mm,126,TA2
S0027,T02,LDIAM,22.5,mm,126,TA2
S0027,T03,LDIAM,8.1,mm,126,TA2
S0027,T04,LDIAM,14.5,mm,126,TA2
S0027,T05,LDIAM,11.2,mm,126,TA2
S0027,,SUMDIAM,76.6,mm,126,TA2
S0033,T01,LDIAM,42.3,mm,0,BASELINE
S0033,T02,LDIAM,16.4,mm,0,BASELINE
S0033,T03,LDIAM,24.0,mm,0,BASELINE
S0033,T04,LDIAM,30.2,mm,0,BASELINE
S0033,,SUMDIAM,112.9,mm,0,BASELINE
S0036,T01,LDIAM,31.0,mm,0,BASELINE
S0036,T02,LDIAM,21.3,mm,0,BASELINE
S0036,T03,LDIAM,33.7,mm,0,BASELINE
S0036,,SUMDIAM,86.0,mm,0,BASELINE
S0004,T01,LDIAM,42.1,mm,0,BASELINE
S0004,T02,LDIAM,42.0,mm,0,BASELINE
S0004,,SUMDIAM,84.1,mm,0,BASELINE
S0004,T01,LDIAM,21.1,mm,63,TA1
S0004,T02,LDIAM,21.0,mm,63,TA1
S0004,,SUMDIAM,42.0,mm,63,TA1
S0004,T01,LDIAM,27.3,mm,126,TA2
S0004,T02,LDIAM,27.3,mm,126,TA2
S0004,,SUMDIAM,54.6,mm,126,TA2
S0004,T01,LDIAM,27.3,mm,189,TA3
S0004,T02,LDIAM,27.3,mm,189,TA3
S0004,,SUMDIAM,54.6,mm,189,TA3
S0004,T01,LDIAM,27.3,mm,252,TA4
S0004,T02,LDIAM,27.3,mm,252,TA4
S0004,,SUMDIAM,54.6,mm,252,TA4
S0004,T01,LDIAM,27.3,mm,315,TA5
S0004,T02,LDIAM,27.3,mm,315,TA5
S0004,,SUMDIAM,54.6,mm,315,TA5
S0004,T01,LDIAM,27.3,mm,378,TA6
S0004,T02,LDIAM,27.3,mm,378,TA6
S0004,,SUMDIAM,54.6,mm,378,TA6
S0004,T01,LDIAM,27.3,mm,441,TA7
S0004,T02,LDIAM,27.3,mm,441,TA7
S0004,,SUMDIAM,54.6,mm,441,TA7
S0004,T01,LDIAM,27.3,mm,504,TA8
S0004,T02,LDIAM,27.3,mm,504,TA8
S0004,,SUMDIAM,54.6,mm,504,TA8
S0004,T01,LDIAM,27.3,mm,567,TA9
S0004,T02,LDIAM,27.3,mm,567,TA9
S0004,,SUMDIAM,54.6,mm,567,TA9
S0004,T01,LDIAM,27.3,mm,630,TA10
S0004,T02,LDIAM,27.3,mm,630,TA10
S0004,,SUMDIAM,54.6,mm,630,TA10
S0004,T01,LDIAM,27.3,mm,693,TA11
S0004,T02,LDIAM,27.3,mm,693,TA11
S0004,,SUMDIAM,54.6,mm,693,TA11
S0004,T01,LDIAM,27.3,mm,756,TA12
S0004,T02,LDIAM,27.3,mm,756,TA12
S0004,,SUMDIAM,54.6,mm,756,TA12
S0004,T01,LDIAM,27.3,mm,819,TA13
S0004,T02,LDIAM,27.3,mm,819,TA13
S0004,,SUMDIAM,54.6,mm,819,TA13
S0004,T01,LDIAM,27.3,mm,882,TA14
S0004,T02,LDIAM,27.3,mm,882,TA14
S0004,,SUMDIAM,54.6,mm,882,TA14
S0004,T01,LDIAM,27.3,mm,945,TA15
S0004,T02,LDIAM,27.3,mm,945,TA15
S0004,,SUMDIAM,54.6,mm,945,TA15
S0004,T01,LDIAM,27.3,mm,1008,TA16
S0004,T02,LDIAM,27.3,mm,1008,TA16
S0004,,SUMDIAM,54.6,mm,1008,TA16
S0007,T01,LDIAM,20.2,mm,0,BASELINE
S0007,,SUMDIAM,20.2,mm,0,BASELINE
S0007,T01,LDIAM,17.9,mm,63,TA1
S0007,,SUMDIAM,17.9,mm,63,TA1
S0011,T01,LDIAM,57.7,mm,0,BASELINE
S0011,T02,LDIAM,16.7,mm,0,BASELINE
S0011,T03,LDIAM,11.7,mm,0,BASELINE
S0011,,SUMDIAM,86.1,mm,0,BASELINE
S0011,T01,LDIAM,50.4,mm,63,TA1
S0011,T02,LDIAM,14.6,mm,63,TA1
S0011,T03,LDIAM,10.2,mm,63,TA1
S0011,,SUMDIAM,75.3,mm,63,TA1
S0011,T01,LDIAM,63.4,mm,126,TA2
S0011,T02,LDIAM,18.4,mm,126,TA2
S0011,T03,LDIAM,12.9,mm,126,TA2
S0011,,SUMDIAM,94.7,mm,126,TA2
S0015,T01,LDIAM,51.6,mm,0,BASELINE
S0015,T02,LDIAM,34.3,mm,0,BASELINE
S0015,T03,LDIAM,38.9,mm,0,BASELINE
S0015,,SUMDIAM,124.8,mm,0,BASELINE
S0015,T01,LDIAM,25.8,mm,63,TA1
S0015,T02,LDIAM,17.1,mm,63,TA1
S0015,T03,LDIAM,19.4,mm,63,TA1
S0015,,SUMDIAM,62.4,mm,63,TA1
S0015,T01,LDIAM,0.0,mm,126,TA2
S0015,T02,LDIAM,0.0,mm,126,TA2
S0015,T03,LDIAM,0.0,mm,126,TA2
S0015,,SUMDIAM,0.0,mm,126,TA2
S0015,T01,LDIAM,2.6,mm,189,TA3
S0015,T02,LDIAM,1.7,mm,189,TA3
S0015,T03,LDIAM,1.9,mm,189,TA3
S0015,,SUMDIAM,6.2,mm,189,TA3
S0015,T01,LDIAM,2.6,mm,252,TA4
S0015,T02,LDIAM,1.7,mm,252,TA4
S0015,T03,LDIAM,1.9,mm,252,TA4
S0015,,SUMDIAM,6.2,mm,252,TA4
S0015,T01,LDIAM,2.6,mm,315,TA5
S0015,T02,LDIAM,1.7,mm,315,TA5
S0015,T03,LDIAM,1.9,mm,315,TA5
S0015,,SUMDIAM,6.2,mm,315,TA5
S0015,T01,LDIAM,2.6,mm,378,TA6
S0015,T02,LDIAM,1.7,mm,378,TA6
S0015,T03,LDIAM,1.9,mm,378,TA6
S0015,,SUMDIAM,6.2,mm,378,TA6
S0015,T01,LDIAM,2.6,mm,441,TA7
S0015,T02,LDIAM,1.7,mm,441,TA7
S0015,T03,LDIAM,1.9,mm,441,TA7
S0015,,SUMDIAM,6.2,mm,441,TA7
S0015,T01,LDIAM,2.6,mm,504,TA8
S0015,T02,LDIAM,1.7,mm,504,TA8
S0015,T03,LDIAM,1.9,mm,504,TA8
S0015,,SUMDIAM,6.2,mm,504,TA8
S0015,T01,LDIAM,2.6,mm,567,TA9
S0015,T02,LDIAM,1.7,mm,567,TA9
S0015,T03,LDIAM,1.9,mm,567,TA9
S0015,,SUMDIAM,6.2,mm,567,TA9
S0015,T01,LDIAM,2.6,mm,630,TA10
S0015,T02,LDIAM,1.7,mm,630,TA10
S0015,T03,LDIAM,1.9,mm,630,TA10
S0015,,SUMDIAM,6.2,mm,630,TA10
S0015,T01,LDIAM,2.6,mm,693,TA11
S0015,T02,LDIAM,1.7,mm,693,TA11
S0015,T03,LDIAM,1.9,mm,693,TA11
S0015,,SUMDIAM,6.2,mm,693,TA11
S0016,T01,LDIAM,42.8,mm,0,BASELINE
S0016,T02,LDIAM,19.5,mm,0,BASELINE
S0016,T03,LDIAM,12.7,mm,0,BASELINE
S0016,T04,LDIAM,55.1,mm,0,BASELINE
S0016,T05,LDIAM,29.4,mm,0,BASELINE
S0016,,SUMDIAM,159.5,mm,0,BASELINE
S0016,T01,LDIAM,37.7,mm,63,TA1
S0016,T02,LDIAM,17.2,mm,63,TA1
S0016,T03,LDIAM,11.2,mm,63,TA1
S0016,T04,LDIAM,48.5,mm,63,TA1
S0016,T05,LDIAM,25.9,mm,63,TA1
S0016,,SUMDIAM,140.3,mm,63,TA1
S0017,T01,LDIAM,18.2,mm,0,BASELINE
S0017,T02,LDIAM,15.7,mm,0,BASELINE
S0017,T03,LDIAM,52.0,mm,0,BASELINE
S0017,,SUMDIAM,85.9,mm,0,BASELINE
S0017,T01,LDIAM,9.1,mm,63,TA1
S0017,T02,LDIAM,7.8,mm,63,TA1
S0017,T03,LDIAM,26.0,mm,63,TA1
S0017,,SUMDIAM,43.0,mm,63,TA1
S0017,T01,LDIAM,0.0,mm,126,TA2
S0017,T02,LDIAM,0.0,mm,126,TA2
S0017,T03,LDIAM,0.0,mm,126,TA2
S0017,,SUMDIAM,0.0,mm,126,TA2
S0018,T01,LDIAM,41.1,mm,0,BASELINE
S0018,T02,LDIAM,59.5,mm,0,BASELINE
S0018,T03,LDIAM,45.6,mm,0,BASELINE
S0018,T04,LDIAM,11.0,mm,0,BASELINE
S0018,,SUMDIAM,157.2,mm,0,BASELINE
S0018,T01,LDIAM,41.7,mm,63,TA1
S0018,T02,LDIAM,60.4,mm,63,TA1
S0018,T03,LDIAM,46.3,mm,63,TA1
S0018,T04,LDIAM,11.2,mm,63,TA1
S0018,,SUMDIAM,159.6,mm,63,TA1
S0031,T01,LDIAM,31.1,mm,0,BASELINE
S0031,T02,LDIAM,52.6,mm,0,BASELINE
S0031,,SUMDIAM,83.7,mm,0,BASELINE
S0031,T01,LDIAM,32.3,mm,63,TA1
S0031,T02,LDIAM,54.6,mm,63,TA1
S0031,,SUMDIAM,86.8,mm,63,TA1
S0031,T01,LDIAM,38.9,mm,126,TA2
S0031,T02,LDIAM,65.8,mm,126,TA2
S0031,,SUMDIAM,104.6,mm,126,TA2
S0032,T01,LDIAM,12.5,mm,0,BASELINE
S0032,T02,LDIAM,53.3,mm,0,BASELINE
S0032,T03,LDIAM,11.2,mm,0,BASELINE
S0032,T04,LDIAM,31.6,mm,0,BASELINE
S0032,T05,LDIAM,31.3,mm,0,BASELINE
S0032,,SUMDIAM,139.9,mm,0,BASELINE
S0032,T01,LDIAM,13.1,mm,63,TA1
S0032,T02,LDIAM,55.8,mm,63,TA1
S0032,T03,LDIAM,11.7,mm,63,TA1
S0032,T04,LDIAM,33.1,mm,63,TA1
S0032,T05,LDIAM,32.8,mm,63,TA1
S0032,,SUMDIAM,146.5,mm,63,TA1
S0032,T01,LDIAM,13.7,mm,126,TA2
S0032,T02,LDIAM,58.4,mm,126,TA2
S0032,T03,LDIAM,12.3,mm,126,TA2
S0032,T04,LDIAM,34.6,mm,126,TA2
S0032,T05,LDIAM,34.3,mm,126,TA2
S0032,,SUMDIAM,153.2,mm,126,TA2
