USUBJID,AESEQ,AETERM,AESER,AETOXGR,AESTDY,AEENDY,AEACN,AERULE,ARMCD,TRTEMFL
S0001,1,anorexia,N,1,12,15,NOT APPLICABLE,,ARM1,Y
S0001,2,edema,N,2,14,15,NOT APPLICABLE,,ARM1,Y
S0001,3,alopecia,N,2,15,16,NOT APPLICABLE,,ARM1,Y
S0001,4,aspartate_aminotransferase_increased,N,2,27,34,NOT APPLICABLE,,ARM1,Y
S0001,5,decrease_in_appetite,N,1,51,58,NOT APPLICABLE,,ARM1,Y
S0002,1,anorexia,N,2,14,15,NOT APPLICABLE,,ARM1,Y
S0002,2,edema,N,1,15,16,NOT APPLICABLE,,ARM1,Y
S0002,3,peripheral_edema,N,1,29,36,NOT APPLICABLE,,ARM1,Y
S0002,4,headache,N,1,33,40,NOT APPLICABLE,,ARM1,Y
S0002,5,decrease_in_appetite,N,2,40,47,NOT APPLICABLE,,ARM1,Y
S0002,6,constipation,N,1,40,47,NOT APPLICABLE,,ARM1,Y
S0002,7,alopecia,N,2,46,53,NOT APPLICABLE,,ARM1,Y
S0003,1,alopecia,N,1,8,9,NOT APPLICABLE,,ARM1,Y
S0003,2,febrile_neutropenia,N,2,9,10,NOT APPLICABLE,,ARM1,Y
S0003,3,edema,N,1,12,15,NOT APPLICABLE,,ARM1,Y
S0003,4,anorexia,N,1,19,26,NOT APPLICABLE,,ARM1,Y
S0003,5,headache,N,2,22,29,NOT APPLICABLE,,ARM1,Y
S0003,6,decrease_in_appetite,N,2,30,37,NOT APPLICABLE,,ARM1,Y
S0003,7,aspartate_aminotransferase_increased,N,1,36,43,NOT APPLICABLE,,ARM1,Y
S0004,1,decrease_in_appetite,N,1,1,2,NOT APPLICABLE,,ARM1,Y
S0004,2,peripheral_edema,N,1,4,5,NOT APPLICABLE,,ARM1,Y
S0004,3,aspartate_aminotransferase_increased,N,2,11,12,NOT APPLICABLE,,ARM1,Y
S0004,4,anorexia,N,1,12,15,NOT APPLICABLE,,ARM1,Y
S0004,5,constipation,N,1,17,18,NOT APPLICABLE,,ARM1,Y
S0004,6,leukocytes,N,2,17,18,NOT APPLICABLE,,ARM1,Y
S0004,7,hyperglycemia,N,2,26,33,NOT APPLICABLE,,ARM1,Y
S0004,8,alopecia,N,2,31,38,NOT APPLICABLE,,ARM1,Y
S0004,9,fever,Y,3,31,45,NOT APPLICABLE,,ARM1,Y
S0004,10,edema,N,1,37,44,NOT APPLICABLE,,ARM1,Y
S0006,1,decrease_in_appetite,N,2,1,2,NOT APPLICABLE,,ARM1,Y
S0006,2,fever,Y,3,2,4,NOT APPLICABLE,,ARM1,Y
S0006,3,alopecia,N,1,4,5,NOT APPLICABLE,,ARM1,Y
S0006,4,xerostomia,N,2,5,8,NOT APPLICABLE,,ARM1,Y
S0006,5,constipation,N,2,12,15,NOT APPLICABLE,,ARM1,Y
S0006,6,hyperglycemia,N,2,12,15,NOT APPLICABLE,,ARM1,Y
S0006,7,dysgeusia,N,1,15,16,NOT APPLICABLE,,ARM1,Y
S0006,8,aspartate_aminotransferase_increased,N,1,20,27,NOT APPLICABLE,,ARM1,Y
S0006,9,anorexia,N,2,22,29,NOT APPLICABLE,,ARM1,Y
S0006,10,asthenia,N,1,33,40,NOT APPLICABLE,,ARM1,Y
S0006,11,headache,N,1,37,44,NOT APPLICABLE,,ARM1,Y
S0006,12,anemia,N,1,43,50,NOT APPLICABLE,,ARM1,Y
S0006,13,febrile_neutropenia,N,1,44,51,NOT APPLICABLE,,ARM1,Y
S0006,14,alanine_aminotransferase_increased,N,1,45,52,NOT APPLICABLE,,ARM1,Y
S0006,15,rash_erythematous_macules_or_papules,N,1,45,52,NOT APPLICABLE,,ARM1,Y
S0006,16,edema,N,1,46,53,NOT APPLICABLE,,ARM1,Y
S0006,17,leukocytes,N,1,51,58,NOT APPLICABLE,,ARM1,Y
S0007,1,febrile_neutropenia,N,1,3,4,NOT APPLICABLE,,ARM1,Y
S0007,2,aspartate_aminotransferase_increased,N,1,7,8,NOT APPLICABLE,,ARM1,Y
S0007,3,edema,N,2,14,15,NOT APPLICABLE,,ARM1,Y
S0007,4,alopecia,N,1,15,16,NOT APPLICABLE,,ARM1,Y
S0007,5,abdominal_pain,N,1,18,19,NOT APPLICABLE,,ARM1,Y
S0007,6,decreased_platelet_count,N,2,21,28,NOT APPLICABLE,,ARM1,Y
S0007,7,headache,N,1,34,41,NOT APPLICABLE,,ARM1,Y
S0007,8,anemia,N,1,38,45,NOT APPLICABLE,,ARM1,Y
S0007,9,anorexia,N,2,48,55,NOT APPLICABLE,,ARM1,Y
S0008,1,headache,N,1,7,8,NOT APPLICABLE,,ARM1,Y
S0008,2,coughing,N,2,7,8,NOT APPLICABLE,,ARM1,Y
S0008,3,fatigue,N,2,21,28,NOT APPLICABLE,,ARM1,Y
S0008,4,anorexia,N,2,29,36,NOT APPLICABLE,,ARM1,Y
S0008,5,pneumonia,Y,3,29,43,NOT APPLICABLE,,ARM1,Y
S0008,6,aspartate_aminotransferase_increased,N,1,31,38,NOT APPLICABLE,,ARM1,Y
S0008,7,edema,N,1,39,46,NOT APPLICABLE,,ARM1,Y
S0008,8,alopecia,N,2,42,49,NOT APPLICABLE,,ARM1,Y
S0009,1,alopecia,N,2,19,26,NOT APPLICABLE,,ARM1,Y
S0010,1,anorexia,N,1,1,2,NOT APPLICABLE,,ARM1,Y
S0010,2,alopecia,N,1,3,4,NOT APPLICABLE,,ARM1,Y
S0010,3,febrile_neutropenia,N,1,5,8,NOT APPLICABLE,,ARM1,Y
S0010,4,aspartate_aminotransferase_increased,N,1,31,38,NOT APPLICABLE,,ARM1,Y
S0010,5,edema,N,1,31,38,NOT APPLICABLE,,ARM1,Y
S0010,6,peripheral_edema,N,2,49,56,NOT APPLICABLE,,ARM1,Y
S0011,1,alopecia,N,2,8,9,NOT APPLICABLE,,ARM1,Y
S0011,2,aspartate_aminotransferase_increased,N,1,17,18,NOT APPLICABLE,,ARM1,Y
S0011,3,headache,N,1,36,43,NOT APPLICABLE,,ARM1,Y
S0011,4,anorexia,N,1,39,46,NOT APPLICABLE,,ARM1,Y
S0011,5,edema,N,1,46,53,NOT APPLICABLE,,ARM1,Y
S0012,1,alopecia,N,2,1,2,NOT APPLICABLE,,ARM1,Y
S0012,2,abdominal_pain,N,1,1,2,NOT APPLICABLE,,ARM1,Y
S0012,3,pneumonia,Y,3,7,9,NOT APPLICABLE,,ARM1,Y
S0012,4,edema,N,1,11,12,NOT APPLICABLE,,ARM1,Y
S0012,5,decrease_in_appetite,N,2,19,26,NOT APPLICABLE,,ARM1,Y
S0012,6,fatigue,N,2,22,29,NOT APPLICABLE,,ARM1,Y
S0012,7,peripheral_edema,N,2,26,33,NOT APPLICABLE,,ARM1,Y
S0012,8,anemia,N,1,30,37,NOT APPLICABLE,,ARM1,Y
S0013,1,aspartate_aminotransferase_increased,N,2,3,4,NOT APPLICABLE,,ARM1,Y
S0013,2,anorexia,N,1,9,10,NOT APPLICABLE,,ARM1,Y
S0013,3,decrease_in_appetite,N,2,20,27,NOT APPLICABLE,,ARM1,Y
S0013,4,decreased_platelet_count,N,2,28,35,NOT APPLICABLE,,ARM1,Y
S0014,1,decrease_in_appetite,N,2,3,4,NOT APPLICABLE,,ARM1,Y
S0014,2,fatigue,N,2,16,17,NOT APPLICABLE,,ARM1,Y
S0014,3,diarrhea,N,2,16,17,NOT APPLICABLE,,ARM1,Y
S0014,4,aspartate_aminotransferase_increased,N,1,19,26,NOT APPLICABLE,,ARM1,Y
S0014,5,xerostomia,N,1,19,26,NOT APPLICABLE,,ARM1,Y
S0014,6,headache,N,2,20,27,NOT APPLICABLE,,ARM1,Y
S0014,7,edema,N,2,23,30,NOT APPLICABLE,,ARM1,Y
S0014,8,alopecia,N,1,26,33,NOT APPLICABLE,,ARM1,Y
S0014,9,anorexia,N,2,26,33,NOT APPLICABLE,,ARM1,Y
S0014,10,pneumonia,Y,3,26,40,NOT APPLICABLE,,ARM1,Y
S0014,11,febrile_neutropenia,N,2,34,41,NOT APPLICABLE,,ARM1,Y
S0015,1,arthralgia,N,2,7,8,NOT APPLICABLE,,ARM1,Y
S0015,2,anemia,N,2,11,12,NOT APPLICABLE,,ARM1,Y
S0015,3,dysgeusia,N,2,12,15,NOT APPLICABLE,,ARM1,Y
S0015,4,decrease_in_appetite,N,1,16,17,NOT APPLICABLE,,ARM1,Y
S0015,5,alopecia,N,2,16,17,NOT APPLICABLE,,ARM1,Y
S0015,6,dyspnea,N,1,17,18,NOT APPLICABLE,,ARM1,Y
S0015,7,edema,N,2,17,18,NOT APPLICABLE,,ARM1,Y
S0015,8,pain,N,1,18,19,NOT APPLICABLE,,ARM1,Y
S0015,9,aspartate_aminotransferase_increased,N,2,20,27,NOT APPLICABLE,,ARM1,Y
S0015,10,febrile_neutropenia,N,1,20,27,NOT APPLICABLE,,ARM1,Y
S0015,11,fever,N,1,22,29,NOT APPLICABLE,,ARM1,Y
S0015,12,vomiting,N,2,23,30,NOT APPLICABLE,,ARM1,Y
S0015,13,abdominal_pain,N,2,26,33,NOT APPLICABLE,,ARM1,Y
S0015,14,headache,N,2,28,35,NOT APPLICABLE,,ARM1,Y
S0015,15,xerostomia,N,1,34,41,NOT APPLICABLE,,ARM1,Y
S0015,16,asthenia,N,1,37,44,NOT APPLICABLE,,ARM1,Y
S0015,17,hyperglycemia,N,1,37,44,NOT APPLICABLE,,ARM1,Y
S0015,18,rash_erythematous_macules_or_papules,N,2,38,45,NOT APPLICABLE,,ARM1,Y
S0015,19,decreased_platelet_count,N,1,40,47,NOT APPLICABLE,,ARM1,Y
S0015,20,fatigue,N,2,45,52,NOT APPLICABLE,,ARM1,Y
S0015,21,white_blood_cell_count_decreased,N,1,46,53,NOT APPLICABLE,,ARM1,Y
S0015,22,constipation,N,2,47,54,NOT APPLICABLE,,ARM1,Y
S0015,23,diarrhea,N,2,47,54,NOT APPLICABLE,,ARM1,Y
S0015,24,peripheral_edema,N,2,47,54,NOT APPLICABLE,,ARM1,Y
S0015,25,anorexia,N,1,48,55,NOT APPLICABLE,,ARM1,Y
S0016,1,anemia,N,2,5,8,NOT APPLICABLE,,ARM1,Y
S0016,2,edema,N,1,15,16,NOT APPLICABLE,,ARM1,Y
S0016,3,headache,N,1,22,29,NOT APPLICABLE,,ARM1,Y
S0016,4,decreased_platelet_count,N,1,24,31,NOT APPLICABLE,,ARM1,Y
S0016,5,alopecia,N,1,28,35,NOT APPLICABLE,,ARM1,Y
S0016,6,decrease_in_appetite,N,1,32,39,NOT APPLICABLE,,ARM1,Y
S0016,7,fatigue,N,1,33,40,NOT APPLICABLE,,ARM1,Y
S0016,8,vomiting,N,2,36,43,NOT APPLICABLE,,ARM1,Y
S0016,9,aspartate_aminotransferase_increased,N,2,42,49,NOT APPLICABLE,,ARM1,Y
S0017,1,febrile_neutropenia,N,1,14,15,NOT APPLICABLE,,ARM1,Y
S0017,2,alopecia,N,2,16,17,NOT APPLICABLE,,ARM1,Y
S0017,3,dyspnea,N,1,16,17,NOT APPLICABLE,,ARM1,Y
S0017,4,dysgeusia,N,2,20,27,NOT APPLICABLE,,ARM1,Y
S0017,5,edema,N,2,21,28,NOT APPLICABLE,,ARM1,Y
S0017,6,anorexia,N,2,38,45,NOT APPLICABLE,,ARM1,Y
S0017,7,anemia,N,2,43,50,NOT APPLICABLE,,ARM1,Y
S0017,8,aspartate_aminotransferase_increased,N,2,47,54,NOT APPLICABLE,,ARM1,Y
S0017,9,decrease_in_appetite,N,2,50,57,NOT APPLICABLE,,ARM1,Y
