STUDYID,USUBJID,ARMCD,AGE,SEX,RACE,ETHNIC,RFSTDTC_DAY,ENROLLMENT_DAY,TRTSDY,TRTEDY,EOTREAS,N_CYCLES,N_REDUCTIONS,N_HOLDS,RDI,ANY_SAE,ANY_GR3,DTHFL,DTHDY
KIROVAX-003,S0001,ARM1,59.1,female,white,not_hispanic_or_latino,1,3.6,1,21,completed planned treatment,3,0,0,1.0,N,N,N,
KIROVAX-003,S0002,ARM1,63.98,male,black_or_african_american,unknown_or_not_reported,1,17.9,1,21,completed planned treatment,3,0,0,1.0,N,N,N,
KIROVAX-003,S0003,ARM1,30.52,female,black_or_african_american,not_hispanic_or_latino,1,65.7,1,9,adverse event (registry discontinuation rate),2,0,0,1.0,N,N,N,
KIROVAX-003,S0004,ARM1,68.71,female,white,not_hispanic_or_latino,1,114.3,1,9,adverse event (registry discontinuation rate),2,0,0,1.0,Y,Y,N,
KIROVAX-003,S0005,ARM1,59.82,female,asian,not_hispanic_or_latino,1,135.0,1,21,completed planned treatment,3,0,0,1.0,N,N,N,
KIROVAX-003,S0006,ARM1,76.31,male,white,hispanic_or_latino,1,375.7,1,21,completed planned treatment,3,0,0,1.0,Y,Y,N,
KIROVAX-003,S0007,ARM1,50.29,male,white,not_hispanic_or_latino,1,459.4,1,21,completed planned treatment,3,0,0,1.0,N,N,N,
KIROVAX-003,S0008,ARM1,66.88,male,white,not_hispanic_or_latino,1,576.8,1,15,adverse event (registry discontinuation rate),3,0,0,1.0,Y,Y,N,
KIROVAX-003,S0009,ARM1,103.41,female,white,not_hispanic_or_latino,1,604.2,1,9,disease progression,2,0,0,1.0,N,N,N,
KIROVAX-003,S0010,ARM1,57.56,male,white,not_hispanic_or_latino,1,654.4,1,21,completed planned treatment,3,0,0,1.0,N,N,N,
KIROVAX-003,S0011,ARM1,58.99,female,black_or_african_american,not_hispanic_or_latino,1,696.3,1,21,completed planned treatment,3,0,0,1.0,N,N,N,
KIROVAX-003,S0012,ARM1,51.71,male,white,hispanic_or_latino,1,713.7,1,2,disease progression,1,0,0,1.0,Y,Y,N,
KIROVAX-003,S0013,ARM1,50.86,female,white,not_hispanic_or_latino,1,715.4,1,21,completed planned treatment,3,0,0,1.0,N,N,N,
KIROVAX-003,S0014,ARM1,65.84,male,white,not_hispanic_or_latino,1,732.0,1,17,disease progression,3,0,0,1.0,Y,Y,N,
KIROVAX-003,S0015,ARM1,55.5,male,white,not_hispanic_or_latino,1,806.9,1,21,completed planned treatment,3,0,0,1.0,N,N,N,
KIROVAX-003,S0016,ARM1,73.08,male,white,not_hispanic_or_latino,1,822.2,1,21,completed planned treatment,3,0,0,1.0,N,N,N,
KIROVAX-003,S0017,ARM1,55.75,male,white,not_hispanic_or_latino,1,997.5,1,21,completed planned treatment,3,0,0,1.0,N,N,N,
