USUBJID,AESEQ,AETERM,AESER,AETOXGR,AESTDY,AEENDY,AEACN,AERULE,ARMCD,TRTEMFL
S0002,1,coughing,N,2,4,11,NOT APPLICABLE,,ARM1,Y
S0002,2,fever,N,2,9,16,NOT APPLICABLE,,ARM1,Y
S0002,3,asthenia,N,1,18,25,NOT APPLICABLE,,ARM1,Y
S0002,4,febrile_neutropenia,Y,3,19,33,NOT APPLICABLE,,ARM1,Y
S0002,5,abdominal_pain,N,2,21,28,NOT APPLICABLE,,ARM1,Y
S0002,6,inflammatory_disease_of_mucous_membrane,N,1,22,29,NOT APPLICABLE,,ARM1,Y
S0003,1,coughing,N,1,3,10,NOT APPLICABLE,,ARM1,Y
S0003,2,epistaxis,N,1,5,12,NOT APPLICABLE,,ARM1,Y
S0003,3,fever,N,2,6,13,NOT APPLICABLE,,ARM1,Y
S0003,4,dyspnea,Y,3,6,20,NOT APPLICABLE,,ARM1,Y
S0003,5,anemia,N,1,7,14,NOT APPLICABLE,,ARM1,Y
S0003,6,inflammatory_disease_of_mucous_membrane,N,1,11,18,NOT APPLICABLE,,ARM1,Y
S0003,7,asthenia,N,2,14,21,NOT APPLICABLE,,ARM1,Y
S0003,8,abdominal_pain,N,2,18,25,NOT APPLICABLE,,ARM1,Y
S0003,9,alanine_aminotransferase_increased,N,1,24,31,NOT APPLICABLE,,ARM1,Y
S0003,10,headache,N,2,31,38,NOT APPLICABLE,,ARM1,Y
S0004,1,epistaxis,N,1,1,8,NOT APPLICABLE,,ARM2,Y
S0004,2,inflammatory_disease_of_mucous_membrane,N,2,3,10,NOT APPLICABLE,,ARM2,Y
S0004,3,diarrhea,N,1,16,23,NOT APPLICABLE,,ARM2,Y
S0004,4,anemia,N,1,17,24,NOT APPLICABLE,,ARM2,Y
S0004,5,dyspnea,N,2,22,29,NOT APPLICABLE,,ARM2,Y
S0004,6,hyperphosphatemia_disorder,N,1,28,35,NOT APPLICABLE,,ARM2,Y
S0005,1,coughing,N,2,14,21,NOT APPLICABLE,,ARM1,Y
S0005,2,fever,N,1,30,37,NOT APPLICABLE,,ARM1,Y
S0006,1,diarrhea,N,1,3,10,NOT APPLICABLE,,ARM2,Y
S0006,2,blood_bilirubin_increased,N,1,9,16,NOT APPLICABLE,,ARM2,Y
S0006,3,hyperphosphatemia_disorder,N,1,13,20,NOT APPLICABLE,,ARM2,Y
S0006,4,epistaxis,N,2,14,21,NOT APPLICABLE,,ARM2,Y
S0006,5,rash_erythematous_macules_or_papules,N,1,16,23,NOT APPLICABLE,,ARM2,Y
S0006,6,nausea,N,2,22,29,NOT APPLICABLE,,ARM2,Y
S0006,7,febrile_neutropenia,N,2,22,29,NOT APPLICABLE,,ARM2,Y
S0007,1,abdominal_pain,N,1,1,8,NOT APPLICABLE,,ARM1,Y
S0007,2,neutropenia,N,2,4,11,NOT APPLICABLE,,ARM1,Y
S0007,3,febrile_neutropenia,Y,3,6,20,NOT APPLICABLE,,ARM1,Y
S0007,4,rash_erythematous_macules_or_papules,N,2,11,18,NOT APPLICABLE,,ARM1,Y
S0007,5,asthenia,N,2,13,20,NOT APPLICABLE,,ARM1,Y
S0007,6,coughing,N,2,13,20,NOT APPLICABLE,,ARM1,Y
S0007,7,fever,N,1,23,30,NOT APPLICABLE,,ARM1,Y
S0008,1,diarrhea,N,2,3,10,NOT APPLICABLE,,ARM2,Y
S0008,2,blood_bilirubin_increased,N,1,10,17,NOT APPLICABLE,,ARM2,Y
S0008,3,epistaxis,N,2,13,20,NOT APPLICABLE,,ARM2,Y
S0008,4,rash_erythematous_macules_or_papules,N,1,15,22,NOT APPLICABLE,,ARM2,Y
S0008,5,hyperphosphatemia_disorder,N,1,25,32,NOT APPLICABLE,,ARM2,Y
S0009,1,alanine_aminotransferase_increased,N,1,1,8,NOT APPLICABLE,,ARM1,Y
S0009,2,fever,N,1,7,14,NOT APPLICABLE,,ARM1,Y
S0009,3,asthenia,N,1,18,25,NOT APPLICABLE,,ARM1,Y
S0010,1,blood_bilirubin_increased,N,2,2,9,NOT APPLICABLE,,ARM2,Y
S0010,2,hyperphosphatemia_disorder,N,2,5,12,NOT APPLICABLE,,ARM2,Y
S0010,3,epistaxis,N,1,5,12,NOT APPLICABLE,,ARM2,Y
S0010,4,diarrhea,N,1,7,14,NOT APPLICABLE,,ARM2,Y
S0010,5,nausea,N,2,14,21,NOT APPLICABLE,,ARM2,Y
S0010,6,dyspnea,N,2,15,22,NOT APPLICABLE,,ARM2,Y
