USUBJID,ARMCD,PARAMCD,PARAM,AVAL_DAYS,CNSR,EVNTDESC
S0001,ARM1,PFS,Progression-free survival (detected at assessment),1,1,censored at last tumour assessment
S0001,ARM1,OS,Overall survival (death in the simulated horizon),1,1,censored at last simulated contact
S0002,ARM1,PFS,Progression-free survival (detected at assessment),1,1,censored at last tumour assessment
S0002,ARM1,OS,Overall survival (death in the simulated horizon),22,1,censored at last simulated contact
S0003,ARM1,PFS,Progression-free survival (detected at assessment),1,1,censored at last tumour assessment
S0003,ARM1,OS,Overall survival (death in the simulated horizon),31,1,censored at last simulated contact
S0004,ARM2,PFS,Progression-free survival (detected at assessment),1,1,censored at last tumour assessment
S0004,ARM2,OS,Overall survival (death in the simulated horizon),28,1,censored at last simulated contact
S0005,ARM1,PFS,Progression-free survival (detected at assessment),1,1,censored at last tumour assessment
S0005,ARM1,OS,Overall survival (death in the simulated horizon),30,1,censored at last simulated contact
S0006,ARM2,PFS,Progression-free survival (detected at assessment),1,1,censored at last tumour assessment
S0006,ARM2,OS,Overall survival (death in the simulated horizon),22,1,censored at last simulated contact
S0007,ARM1,PFS,Progression-free survival (detected at assessment),1,1,censored at last tumour assessment
S0007,ARM1,OS,Overall survival (death in the simulated horizon),23,1,censored at last simulated contact
S0008,ARM2,PFS,Progression-free survival (detected at assessment),1,1,censored at last tumour assessment
S0008,ARM2,OS,Overall survival (death in the simulated horizon),25,1,censored at last simulated contact
S0009,ARM1,PFS,Progression-free survival (detected at assessment),1,1,censored at last tumour assessment
S0009,ARM1,OS,Overall survival (death in the simulated horizon),18,1,censored at last simulated contact
S0010,ARM2,PFS,Progression-free survival (detected at assessment),1,1,censored at last tumour assessment
S0010,ARM2,OS,Overall survival (death in the simulated horizon),15,1,censored at last simulated contact
