USUBJID,ARMCD,PARAMCD,AVAL,CNSR,EVNTDESC
S0002,ARM1,PFS,84.0,0,progressive disease
S0002,ARM1,OS,270.1,0,death
S0002,ARM1,TTP,84.0,0,progressive disease
S0004,ARM1,PFS,27.0,0,death
S0004,ARM1,OS,27.0,0,death
S0004,ARM1,TTP,0.0,1,censored at last adequate tumour assessment
S0008,ARM1,PFS,336.0,0,progressive disease
S0008,ARM1,OS,2648.8,0,death
S0008,ARM1,TTP,336.0,0,progressive disease
S0009,ARM1,PFS,420.0,0,progressive disease
S0009,ARM1,OS,588.7,0,death
S0009,ARM1,TTP,420.0,0,progressive disease
S0010,ARM1,PFS,336.0,0,progressive disease
S0010,ARM1,OS,581.7,0,death
S0010,ARM1,TTP,336.0,0,progressive disease
S0012,ARM1,PFS,84.0,0,progressive disease
S0012,ARM1,OS,305.5,0,death
S0012,ARM1,TTP,84.0,0,progressive disease
S0013,ARM1,PFS,336.0,0,progressive disease
S0013,ARM1,OS,838.5,0,death
S0013,ARM1,TTP,336.0,0,progressive disease
S0014,ARM1,PFS,84.0,0,progressive disease
S0014,ARM1,OS,517.5,0,death
S0014,ARM1,TTP,84.0,0,progressive disease
S0015,ARM1,PFS,62.2,0,death
S0015,ARM1,OS,62.2,0,death
S0015,ARM1,TTP,0.0,1,censored at last adequate tumour assessment
S0017,ARM1,PFS,84.0,0,progressive disease
S0017,ARM1,OS,875.8,0,death
S0017,ARM1,TTP,84.0,0,progressive disease
S0018,ARM1,PFS,252.0,0,progressive disease
S0018,ARM1,OS,1752.3,0,death
S0018,ARM1,TTP,252.0,0,progressive disease
S0021,ARM1,PFS,84.0,1,censored at last adequate tumour assessment
S0021,ARM1,OS,617.0,0,death
S0021,ARM1,TTP,84.0,1,censored at last adequate tumour assessment
S0026,ARM1,PFS,168.0,0,progressive disease
S0026,ARM1,OS,734.7,0,death
S0026,ARM1,TTP,168.0,0,progressive disease
S0028,ARM1,PFS,84.0,0,progressive disease
S0028,ARM1,OS,1560.0,1,censored at last contact
S0028,ARM1,TTP,84.0,0,progressive disease
S0029,ARM1,PFS,84.0,0,progressive disease
S0029,ARM1,OS,363.1,0,death
S0029,ARM1,TTP,84.0,0,progressive disease
S0030,ARM1,PFS,168.0,0,progressive disease
S0030,ARM1,OS,579.6,0,death
S0030,ARM1,TTP,168.0,0,progressive disease
S0033,ARM1,PFS,217.7,0,death
S0033,ARM1,OS,217.7,0,death
S0033,ARM1,TTP,168.0,1,censored at last adequate tumour assessment
S0033,ARM1,DOR,133.7,0,death
S0033,ARM1,TTR,84.0,0,first response
S0035,ARM1,PFS,840.0,0,progressive disease
S0035,ARM1,OS,1340.1,1,censored at last contact
S0035,ARM1,TTP,840.0,0,progressive disease
S0039,ARM1,PFS,420.0,0,progressive disease
S0039,ARM1,OS,820.1,0,death
S0039,ARM1,TTP,420.0,0,progressive disease
S0040,ARM1,PFS,504.0,0,progressive disease
S0040,ARM1,OS,560.4,0,death
S0040,ARM1,TTP,504.0,0,progressive disease
S0041,ARM1,PFS,126.7,0,death
S0041,ARM1,OS,126.7,0,death
S0041,ARM1,TTP,84.0,1,censored at last adequate tumour assessment
S0042,ARM1,PFS,672.0,0,progressive disease
S0042,ARM1,OS,1153.8,1,censored at last contact
S0042,ARM1,TTP,672.0,0,progressive disease
S0045,ARM1,PFS,84.0,0,progressive disease
S0045,ARM1,OS,896.8,1,censored at last contact
S0045,ARM1,TTP,84.0,0,progressive disease
S0046,ARM1,PFS,84.0,0,progressive disease
S0046,ARM1,OS,516.9,0,death
S0046,ARM1,TTP,84.0,0,progressive disease
S0048,ARM1,PFS,281.1,0,death
S0048,ARM1,OS,281.1,0,death
S0048,ARM1,TTP,252.0,1,censored at last adequate tumour assessment
S0049,ARM1,PFS,84.0,0,progressive disease
S0049,ARM1,OS,299.6,0,death
S0049,ARM1,TTP,84.0,0,progressive disease
S0053,ARM1,PFS,336.0,1,censored at last adequate tumour assessment
S0053,ARM1,OS,390.6,1,censored at last contact
S0053,ARM1,TTP,336.0,1,censored at last adequate tumour assessment
S0053,ARM1,DOR,168.0,1,censored at last adequate tumour assessment
S0053,ARM1,TTR,168.0,0,first response
S0055,ARM1,PFS,84.0,1,censored at last adequate tumour assessment
S0055,ARM1,OS,107.7,1,censored at last contact
S0055,ARM1,TTP,84.0,1,censored at last adequate tumour assessment
S0057,ARM1,PFS,84.0,1,censored at last adequate tumour assessment
S0057,ARM1,OS,91.3,1,censored at last contact
S0057,ARM1,TTP,84.0,1,censored at last adequate tumour assessment
S0001,ARM2,PFS,1406.8,0,death
S0001,ARM2,OS,1406.8,0,death
S0001,ARM2,TTP,1344.0,1,censored at last adequate tumour assessment
S0001,ARM2,DOR,1238.8,0,death
S0001,ARM2,TTR,168.0,0,first response
S0003,ARM2,PFS,168.0,0,progressive disease
S0003,ARM2,OS,313.0,0,death
S0003,ARM2,TTP,168.0,0,progressive disease
S0003,ARM2,DOR,84.0,0,progressive disease
S0003,ARM2,TTR,84.0,0,first response
S0005,ARM2,PFS,756.0,0,progressive disease
S0005,ARM2,OS,2806.6,1,censored at last contact
S0005,ARM2,TTP,756.0,0,progressive disease
S0006,ARM2,PFS,756.0,0,progressive disease
S0006,ARM2,OS,1492.4,0,death
S0006,ARM2,TTP,756.0,0,progressive disease
S0007,ARM2,PFS,504.0,0,progressive disease
S0007,ARM2,OS,1235.2,0,death
S0007,ARM2,TTP,504.0,0,progressive disease
S0011,ARM2,PFS,504.0,0,progressive disease
S0011,ARM2,OS,660.2,0,death
S0011,ARM2,TTP,504.0,0,progressive disease
S0016,ARM2,PFS,84.0,0,progressive disease
S0016,ARM2,OS,1269.3,0,death
S0016,ARM2,TTP,84.0,0,progressive disease
S0019,ARM2,PFS,84.0,0,progressive disease
S0019,ARM2,OS,1280.8,0,death
S0019,ARM2,TTP,84.0,0,progressive disease
S0020,ARM2,PFS,1210.3,0,death
S0020,ARM2,OS,1210.3,0,death
S0020,ARM2,TTP,1176.0,1,censored at last adequate tumour assessment
S0020,ARM2,DOR,1126.3,0,death
S0020,ARM2,TTR,84.0,0,first response
S0022,ARM2,PFS,84.0,0,progressive disease
S0022,ARM2,OS,195.2,0,death
S0022,ARM2,TTP,84.0,0,progressive disease
S0023,ARM2,PFS,147.7,0,death
S0023,ARM2,OS,147.7,0,death
S0023,ARM2,TTP,84.0,1,censored at last adequate tumour assessment
S0023,ARM2,DOR,63.7,0,death
S0023,ARM2,TTR,84.0,0,first response
S0024,ARM2,PFS,672.0,0,progressive disease
S0024,ARM2,OS,749.6,0,death
S0024,ARM2,TTP,672.0,0,progressive disease
S0025,ARM2,PFS,168.0,0,progressive disease
S0025,ARM2,OS,833.8,0,death
S0025,ARM2,TTP,168.0,0,progressive disease
S0027,ARM2,PFS,84.0,0,progressive disease
S0027,ARM2,OS,696.8,0,death
S0027,ARM2,TTP,84.0,0,progressive disease
S0031,ARM2,PFS,84.0,0,progressive disease
S0031,ARM2,OS,336.9,0,death
S0031,ARM2,TTP,84.0,0,progressive disease
S0032,ARM2,PFS,420.0,0,progressive disease
S0032,ARM2,OS,1150.5,0,death
S0032,ARM2,TTP,420.0,0,progressive disease
S0034,ARM2,PFS,84.0,0,progressive disease
S0034,ARM2,OS,1124.4,0,death
S0034,ARM2,TTP,84.0,0,progressive disease
S0036,ARM2,PFS,84.0,0,progressive disease
S0036,ARM2,OS,881.9,0,death
S0036,ARM2,TTP,84.0,0,progressive disease
S0037,ARM2,PFS,84.0,0,progressive disease
S0037,ARM2,OS,302.6,0,death
S0037,ARM2,TTP,84.0,0,progressive disease
S0038,ARM2,PFS,672.0,0,progressive disease
S0038,ARM2,OS,1251.8,1,censored at last contact
S0038,ARM2,TTP,672.0,0,progressive disease
S0043,ARM2,PFS,420.0,0,progressive disease
S0043,ARM2,OS,694.0,0,death
S0043,ARM2,TTP,420.0,0,progressive disease
S0044,ARM2,PFS,252.0,0,progressive disease
S0044,ARM2,OS,560.9,0,death
S0044,ARM2,TTP,252.0,0,progressive disease
S0047,ARM2,PFS,84.0,0,progressive disease
S0047,ARM2,OS,767.5,1,censored at last contact
S0047,ARM2,TTP,84.0,0,progressive disease
S0050,ARM2,PFS,588.0,1,censored at last adequate tumour assessment
S0050,ARM2,OS,610.0,1,censored at last contact
S0050,ARM2,TTP,588.0,1,censored at last adequate tumour assessment
S0050,ARM2,DOR,504.0,1,censored at last adequate tumour assessment
S0050,ARM2,TTR,84.0,0,first response
S0051,ARM2,PFS,420.0,0,progressive disease
S0051,ARM2,OS,492.3,0,death
S0051,ARM2,TTP,420.0,0,progressive disease
S0052,ARM2,PFS,84.0,0,progressive disease
S0052,ARM2,OS,320.1,0,death
S0052,ARM2,TTP,84.0,0,progressive disease
S0054,ARM2,PFS,84.0,0,progressive disease
S0054,ARM2,OS,209.6,1,censored at last contact
S0054,ARM2,TTP,84.0,0,progressive disease
S0056,ARM2,PFS,84.0,0,progressive disease
S0056,ARM2,OS,102.9,1,censored at last contact
S0056,ARM2,TTP,84.0,0,progressive disease
