USUBJID,ARMCD,PARAMCD,AVAL,CNSR,EVNTDESC
S0003,ARM3,PFS,163.9,0,death
S0003,ARM3,TTP,112.0,1,censored at last adequate tumour assessment
S0003,ARM3,DOR,107.9,0,death
S0003,ARM3,TTR,56.0,0,first response
S0007,ARM3,PFS,10.0,0,death
S0007,ARM3,TTP,0.0,1,censored at last adequate tumour assessment
S0012,ARM3,PFS,112.0,0,progressive disease
S0012,ARM3,TTP,112.0,0,progressive disease
S0012,ARM3,DOR,56.0,0,progressive disease
S0012,ARM3,TTR,56.0,0,first response
S0013,ARM3,PFS,168.0,0,progressive disease
S0013,ARM3,TTP,168.0,0,progressive disease
S0013,ARM3,DOR,112.0,0,progressive disease
S0013,ARM3,TTR,56.0,0,first response
S0016,ARM3,PFS,56.0,0,progressive disease
S0016,ARM3,TTP,56.0,0,progressive disease
S0017,ARM3,PFS,392.0,0,progressive disease
S0017,ARM3,TTP,392.0,0,progressive disease
S0020,ARM3,PFS,56.0,0,progressive disease
S0020,ARM3,TTP,56.0,0,progressive disease
S0031,ARM3,PFS,168.0,0,progressive disease
S0031,ARM3,TTP,168.0,0,progressive disease
S0031,ARM3,DOR,112.0,0,progressive disease
S0031,ARM3,TTR,56.0,0,first response
S0040,ARM3,PFS,30.0,0,death
S0040,ARM3,TTP,0.0,1,censored at last adequate tumour assessment
S0043,ARM3,PFS,56.0,0,progressive disease
S0043,ARM3,TTP,56.0,0,progressive disease
S0044,ARM3,PFS,224.0,0,progressive disease
S0044,ARM3,TTP,224.0,0,progressive disease
S0044,ARM3,DOR,112.0,0,progressive disease
S0044,ARM3,TTR,112.0,0,first response
S0051,ARM3,PFS,336.0,0,progressive disease
S0051,ARM3,TTP,336.0,0,progressive disease
S0054,ARM3,PFS,52.0,0,death
S0054,ARM3,TTP,0.0,1,censored at last adequate tumour assessment
S0065,ARM3,PFS,112.0,0,progressive disease
S0065,ARM3,TTP,112.0,0,progressive disease
S0065,ARM3,DOR,56.0,0,progressive disease
S0065,ARM3,TTR,56.0,0,first response
S0067,ARM3,PFS,112.0,0,progressive disease
S0067,ARM3,TTP,112.0,0,progressive disease
S0073,ARM3,PFS,56.0,0,progressive disease
S0073,ARM3,TTP,56.0,0,progressive disease
S0074,ARM3,PFS,224.0,0,progressive disease
S0074,ARM3,TTP,224.0,0,progressive disease
S0076,ARM3,PFS,178.5,0,death
S0076,ARM3,TTP,168.0,1,censored at last adequate tumour assessment
S0078,ARM3,PFS,728.0,0,progressive disease
S0078,ARM3,TTP,728.0,0,progressive disease
S0078,ARM3,DOR,672.0,0,progressive disease
S0078,ARM3,TTR,56.0,0,first response
S0082,ARM3,PFS,448.0,0,progressive disease
S0082,ARM3,TTP,448.0,0,progressive disease
S0087,ARM3,PFS,392.0,0,progressive disease
S0087,ARM3,TTP,392.0,0,progressive disease
S0091,ARM3,PFS,149.9,0,death
S0091,ARM3,TTP,112.0,1,censored at last adequate tumour assessment
S0091,ARM3,DOR,37.9,0,death
S0091,ARM3,TTR,112.0,0,first response
S0096,ARM3,PFS,1338.4,0,death
S0096,ARM3,TTP,1288.0,1,censored at last adequate tumour assessment
S0096,ARM3,DOR,1226.4,0,death
S0096,ARM3,TTR,112.0,0,first response
S0099,ARM3,PFS,56.0,0,progressive disease
S0099,ARM3,TTP,56.0,0,progressive disease
S0103,ARM3,PFS,112.0,0,progressive disease
S0103,ARM3,TTP,112.0,0,progressive disease
S0104,ARM3,PFS,235.9,0,death
S0104,ARM3,TTP,224.0,1,censored at last adequate tumour assessment
S0113,ARM3,PFS,56.0,0,progressive disease
S0113,ARM3,TTP,56.0,0,progressive disease
S0115,ARM3,PFS,392.0,0,progressive disease
S0115,ARM3,TTP,392.0,0,progressive disease
S0118,ARM3,PFS,112.0,0,progressive disease
S0118,ARM3,TTP,112.0,0,progressive disease
S0118,ARM3,DOR,56.0,0,progressive disease
S0118,ARM3,TTR,56.0,0,first response
S0131,ARM3,PFS,168.0,0,progressive disease
S0131,ARM3,TTP,168.0,0,progressive disease
S0131,ARM3,DOR,112.0,0,progressive disease
S0131,ARM3,TTR,56.0,0,first response
S0133,ARM3,PFS,602.1,0,death
S0133,ARM3,TTP,560.0,1,censored at last adequate tumour assessment
S0133,ARM3,DOR,490.1,0,death
S0133,ARM3,TTR,112.0,0,first response
S0134,ARM3,PFS,755.5,0,death
S0134,ARM3,TTP,728.0,1,censored at last adequate tumour assessment
S0134,ARM3,DOR,699.5,0,death
S0134,ARM3,TTR,56.0,0,first response
S0137,ARM3,PFS,616.0,0,progressive disease
S0137,ARM3,TTP,616.0,0,progressive disease
S0137,ARM3,DOR,560.0,0,progressive disease
S0137,ARM3,TTR,56.0,0,first response
S0141,ARM3,PFS,896.0,0,progressive disease
S0141,ARM3,TTP,896.0,0,progressive disease
S0141,ARM3,DOR,784.0,0,progressive disease
S0141,ARM3,TTR,112.0,0,first response
S0144,ARM3,PFS,0.0,1,censored at last adequate tumour assessment
S0144,ARM3,TTP,0.0,1,censored at last adequate tumour assessment
S0147,ARM3,PFS,448.0,0,progressive disease
S0147,ARM3,TTP,448.0,0,progressive disease
S0147,ARM3,DOR,336.0,0,progressive disease
S0147,ARM3,TTR,112.0,0,first response
S0153,ARM3,PFS,112.0,0,progressive disease
S0153,ARM3,TTP,112.0,0,progressive disease
S0154,ARM3,PFS,56.0,0,progressive disease
S0154,ARM3,TTP,56.0,0,progressive disease
S0161,ARM3,PFS,952.0,0,progressive disease
S0161,ARM3,TTP,952.0,0,progressive disease
S0161,ARM3,DOR,840.0,0,progressive disease
S0161,ARM3,TTR,112.0,0,first response
S0163,ARM3,PFS,56.0,0,progressive disease
S0163,ARM3,TTP,56.0,0,progressive disease
S0166,ARM3,PFS,150.2,0,death
S0166,ARM3,TTP,112.0,1,censored at last adequate tumour assessment
S0173,ARM3,PFS,784.0,0,progressive disease
S0173,ARM3,TTP,784.0,0,progressive disease
S0173,ARM3,DOR,728.0,0,progressive disease
S0173,ARM3,TTR,56.0,0,first response
S0175,ARM3,PFS,112.0,0,progressive disease
S0175,ARM3,TTP,112.0,0,progressive disease
S0176,ARM3,PFS,56.0,0,progressive disease
S0176,ARM3,TTP,56.0,0,progressive disease
S0178,ARM3,PFS,112.0,0,progressive disease
S0178,ARM3,TTP,112.0,0,progressive disease
S0178,ARM3,DOR,56.0,0,progressive disease
S0178,ARM3,TTR,56.0,0,first response
S0184,ARM3,PFS,715.7,0,death
S0184,ARM3,TTP,672.0,1,censored at last adequate tumour assessment
S0184,ARM3,DOR,659.7,0,death
S0184,ARM3,TTR,56.0,0,first response
S0188,ARM3,PFS,56.0,0,progressive disease
S0188,ARM3,TTP,56.0,0,progressive disease
S0189,ARM3,PFS,112.0,0,progressive disease
S0189,ARM3,TTP,112.0,0,progressive disease
S0190,ARM3,PFS,56.0,0,progressive disease
S0190,ARM3,TTP,56.0,0,progressive disease
S0005,ARM4,PFS,784.0,0,progressive disease
S0005,ARM4,TTP,784.0,0,progressive disease
S0005,ARM4,DOR,672.0,0,progressive disease
S0005,ARM4,TTR,112.0,0,first response
S0009,ARM4,PFS,499.7,0,death
S0009,ARM4,TTP,448.0,1,censored at last adequate tumour assessment
S0009,ARM4,DOR,387.7,0,death
S0009,ARM4,TTR,112.0,0,first response
S0010,ARM4,PFS,280.0,0,progressive disease
S0010,ARM4,TTP,280.0,0,progressive disease
S0011,ARM4,PFS,216.1,0,death
S0011,ARM4,TTP,168.0,1,censored at last adequate tumour assessment
S0011,ARM4,DOR,104.1,0,death
S0011,ARM4,TTR,112.0,0,first response
S0018,ARM4,PFS,364.4,0,death
S0018,ARM4,TTP,336.0,1,censored at last adequate tumour assessment
S0021,ARM4,PFS,112.0,0,progressive disease
S0021,ARM4,TTP,112.0,0,progressive disease
S0021,ARM4,DOR,56.0,0,progressive disease
S0021,ARM4,TTR,56.0,0,first response
S0024,ARM4,PFS,336.0,0,progressive disease
S0024,ARM4,TTP,336.0,0,progressive disease
S0025,ARM4,PFS,112.0,1,censored at last adequate tumour assessment
S0025,ARM4,TTP,112.0,1,censored at last adequate tumour assessment
S0025,ARM4,DOR,56.0,1,censored at last adequate tumour assessment
S0025,ARM4,TTR,56.0,0,first response
S0026,ARM4,PFS,56.0,0,progressive disease
S0026,ARM4,TTP,56.0,0,progressive disease
S0034,ARM4,PFS,112.0,0,progressive disease
S0034,ARM4,TTP,112.0,0,progressive disease
S0034,ARM4,DOR,56.0,0,progressive disease
S0034,ARM4,TTR,56.0,0,first response
S0035,ARM4,PFS,392.0,0,progressive disease
S0035,ARM4,TTP,392.0,0,progressive disease
S0042,ARM4,PFS,56.0,0,progressive disease
S0042,ARM4,TTP,56.0,0,progressive disease
S0046,ARM4,PFS,280.0,0,progressive disease
S0046,ARM4,TTP,280.0,0,progressive disease
S0046,ARM4,DOR,168.0,0,progressive disease
S0046,ARM4,TTR,112.0,0,first response
S0047,ARM4,PFS,662.1,0,death
S0047,ARM4,TTP,616.0,1,censored at last adequate tumour assessment
S0047,ARM4,DOR,550.1,0,death
S0047,ARM4,TTR,112.0,0,first response
S0053,ARM4,PFS,207.6,0,death
S0053,ARM4,TTP,168.0,1,censored at last adequate tumour assessment
S0053,ARM4,DOR,95.6,0,death
S0053,ARM4,TTR,112.0,0,first response
S0056,ARM4,PFS,168.0,0,progressive disease
S0056,ARM4,TTP,168.0,0,progressive disease
S0056,ARM4,DOR,56.0,0,progressive disease
S0056,ARM4,TTR,112.0,0,first response
S0058,ARM4,PFS,224.0,0,progressive disease
S0058,ARM4,TTP,224.0,0,progressive disease
S0059,ARM4,PFS,672.0,0,progressive disease
S0059,ARM4,TTP,672.0,0,progressive disease
S0060,ARM4,PFS,168.0,0,progressive disease
S0060,ARM4,TTP,168.0,0,progressive disease
S0060,ARM4,DOR,112.0,0,progressive disease
S0060,ARM4,TTR,56.0,0,first response
S0061,ARM4,PFS,56.0,0,progressive disease
S0061,ARM4,TTP,56.0,0,progressive disease
S0062,ARM4,PFS,112.0,0,progressive disease
S0062,ARM4,TTP,112.0,0,progressive disease
S0063,ARM4,PFS,168.0,0,progressive disease
S0063,ARM4,TTP,168.0,0,progressive disease
S0068,ARM4,PFS,224.0,0,progressive disease
S0068,ARM4,TTP,224.0,0,progressive disease
S0071,ARM4,PFS,616.0,0,progressive disease
S0071,ARM4,TTP,616.0,0,progressive disease
S0071,ARM4,DOR,504.0,0,progressive disease
S0071,ARM4,TTR,112.0,0,first response
S0083,ARM4,PFS,56.0,0,progressive disease
S0083,ARM4,TTP,56.0,0,progressive disease
S0086,ARM4,PFS,112.0,0,progressive disease
S0086,ARM4,TTP,112.0,0,progressive disease
S0094,ARM4,PFS,1624.0,0,progressive disease
S0094,ARM4,TTP,1624.0,0,progressive disease
S0094,ARM4,DOR,1512.0,0,progressive disease
S0094,ARM4,TTR,112.0,0,first response
S0097,ARM4,PFS,392.0,0,progressive disease
S0097,ARM4,TTP,392.0,0,progressive disease
S0097,ARM4,DOR,280.0,0,progressive disease
S0097,ARM4,TTR,112.0,0,first response
S0101,ARM4,PFS,56.0,0,progressive disease
S0101,ARM4,TTP,56.0,0,progressive disease
S0107,ARM4,PFS,112.0,0,progressive disease
S0107,ARM4,TTP,112.0,0,progressive disease
S0107,ARM4,DOR,56.0,0,progressive disease
S0107,ARM4,TTR,56.0,0,first response
S0111,ARM4,PFS,112.0,0,progressive disease
S0111,ARM4,TTP,112.0,0,progressive disease
S0111,ARM4,DOR,56.0,0,progressive disease
S0111,ARM4,TTR,56.0,0,first response
S0112,ARM4,PFS,1097.8,0,death
S0112,ARM4,TTP,1064.0,1,censored at last adequate tumour assessment
S0112,ARM4,DOR,1041.8,0,death
S0112,ARM4,TTR,56.0,0,first response
S0116,ARM4,PFS,332.8,0,death
S0116,ARM4,TTP,280.0,1,censored at last adequate tumour assessment
S0116,ARM4,DOR,220.8,0,death
S0116,ARM4,TTR,112.0,0,first response
S0121,ARM4,PFS,392.0,0,progressive disease
S0121,ARM4,TTP,392.0,0,progressive disease
S0122,ARM4,PFS,56.0,0,progressive disease
S0122,ARM4,TTP,56.0,0,progressive disease
S0123,ARM4,PFS,448.0,0,progressive disease
S0123,ARM4,TTP,448.0,0,progressive disease
S0126,ARM4,PFS,56.0,0,progressive disease
S0126,ARM4,TTP,56.0,0,progressive disease
S0127,ARM4,PFS,112.0,0,progressive disease
S0127,ARM4,TTP,112.0,0,progressive disease
S0128,ARM4,PFS,56.0,0,progressive disease
S0128,ARM4,TTP,56.0,0,progressive disease
S0129,ARM4,PFS,336.0,0,progressive disease
S0129,ARM4,TTP,336.0,0,progressive disease
S0132,ARM4,PFS,494.0,0,death
S0132,ARM4,TTP,448.0,1,censored at last adequate tumour assessment
S0132,ARM4,DOR,382.0,0,death
S0132,ARM4,TTR,112.0,0,first response
S0139,ARM4,PFS,56.0,0,progressive disease
S0139,ARM4,TTP,56.0,0,progressive disease
S0140,ARM4,PFS,56.0,0,progressive disease
S0140,ARM4,TTP,56.0,0,progressive disease
S0142,ARM4,PFS,56.0,0,progressive disease
S0142,ARM4,TTP,56.0,0,progressive disease
S0143,ARM4,PFS,617.3,0,death
S0143,ARM4,TTP,616.0,1,censored at last adequate tumour assessment
S0143,ARM4,DOR,561.3,0,death
S0143,ARM4,TTR,56.0,0,first response
S0145,ARM4,PFS,224.0,0,progressive disease
S0145,ARM4,TTP,224.0,0,progressive disease
S0145,ARM4,DOR,168.0,0,progressive disease
S0145,ARM4,TTR,56.0,0,first response
S0149,ARM4,PFS,952.0,0,progressive disease
S0149,ARM4,TTP,952.0,0,progressive disease
S0149,ARM4,DOR,840.0,0,progressive disease
S0149,ARM4,TTR,112.0,0,first response
S0158,ARM4,PFS,112.0,0,progressive disease
S0158,ARM4,TTP,112.0,0,progressive disease
S0158,ARM4,DOR,56.0,0,progressive disease
S0158,ARM4,TTR,56.0,0,first response
S0159,ARM4,PFS,112.0,0,progressive disease
S0159,ARM4,TTP,112.0,0,progressive disease
S0159,ARM4,DOR,56.0,0,progressive disease
S0159,ARM4,TTR,56.0,0,first response
S0160,ARM4,PFS,224.0,0,progressive disease
S0160,ARM4,TTP,224.0,0,progressive disease
S0165,ARM4,PFS,692.8,0,death
S0165,ARM4,TTP,672.0,1,censored at last adequate tumour assessment
S0165,ARM4,DOR,580.8,0,death
S0165,ARM4,TTR,112.0,0,first response
S0168,ARM4,PFS,515.0,0,death
S0168,ARM4,TTP,504.0,1,censored at last adequate tumour assessment
S0168,ARM4,DOR,459.0,0,death
S0168,ARM4,TTR,56.0,0,first response
S0171,ARM4,PFS,56.0,0,progressive disease
S0171,ARM4,TTP,56.0,0,progressive disease
S0174,ARM4,PFS,336.0,0,progressive disease
S0174,ARM4,TTP,336.0,0,progressive disease
S0177,ARM4,PFS,1456.0,0,progressive disease
S0177,ARM4,TTP,1456.0,0,progressive disease
S0180,ARM4,PFS,214.0,0,death
S0180,ARM4,TTP,168.0,1,censored at last adequate tumour assessment
S0180,ARM4,DOR,158.0,0,death
S0180,ARM4,TTR,56.0,0,first response
S0001,ARM5,PFS,448.0,0,progressive disease
S0001,ARM5,TTP,448.0,0,progressive disease
S0001,ARM5,DOR,336.0,0,progressive disease
S0001,ARM5,TTR,112.0,0,first response
S0004,ARM5,PFS,56.0,0,progressive disease
S0004,ARM5,TTP,56.0,0,progressive disease
S0006,ARM5,PFS,275.5,0,death
S0006,ARM5,TTP,224.0,1,censored at last adequate tumour assessment
S0006,ARM5,DOR,163.5,0,death
S0006,ARM5,TTR,112.0,0,first response
S0008,ARM5,PFS,56.0,0,progressive disease
S0008,ARM5,TTP,56.0,0,progressive disease
S0014,ARM5,PFS,56.0,0,progressive disease
S0014,ARM5,TTP,56.0,0,progressive disease
S0015,ARM5,PFS,504.0,0,progressive disease
S0015,ARM5,TTP,504.0,0,progressive disease
S0023,ARM5,PFS,56.0,0,progressive disease
S0023,ARM5,TTP,56.0,0,progressive disease
S0029,ARM5,PFS,2053.4,0,death
S0029,ARM5,TTP,2016.0,1,censored at last adequate tumour assessment
S0029,ARM5,DOR,1997.4,0,death
S0029,ARM5,TTR,56.0,0,first response
S0030,ARM5,PFS,448.0,0,progressive disease
S0030,ARM5,TTP,448.0,0,progressive disease
S0030,ARM5,DOR,392.0,0,progressive disease
S0030,ARM5,TTR,56.0,0,first response
S0032,ARM5,PFS,168.0,0,progressive disease
S0032,ARM5,TTP,168.0,0,progressive disease
S0032,ARM5,DOR,56.0,0,progressive disease
S0032,ARM5,TTR,112.0,0,first response
S0038,ARM5,PFS,112.0,0,progressive disease
S0038,ARM5,TTP,112.0,0,progressive disease
S0048,ARM5,PFS,224.0,0,progressive disease
S0048,ARM5,TTP,224.0,0,progressive disease
S0048,ARM5,DOR,168.0,0,progressive disease
S0048,ARM5,TTR,56.0,0,first response
S0052,ARM5,PFS,280.0,0,progressive disease
S0052,ARM5,TTP,280.0,0,progressive disease
S0055,ARM5,PFS,992.2,0,death
S0055,ARM5,TTP,952.0,1,censored at last adequate tumour assessment
S0055,ARM5,DOR,936.2,0,death
S0055,ARM5,TTR,56.0,0,first response
S0064,ARM5,PFS,56.0,0,progressive disease
S0064,ARM5,TTP,56.0,0,progressive disease
S0066,ARM5,PFS,280.0,0,progressive disease
S0066,ARM5,TTP,280.0,0,progressive disease
S0066,ARM5,DOR,168.0,0,progressive disease
S0066,ARM5,TTR,112.0,0,first response
S0069,ARM5,PFS,224.0,0,progressive disease
S0069,ARM5,TTP,224.0,0,progressive disease
S0069,ARM5,DOR,112.0,0,progressive disease
S0069,ARM5,TTR,112.0,0,first response
S0070,ARM5,PFS,111.0,0,death
S0070,ARM5,TTP,56.0,1,censored at last adequate tumour assessment
S0072,ARM5,PFS,448.0,0,progressive disease
S0072,ARM5,TTP,448.0,0,progressive disease
S0075,ARM5,PFS,112.0,0,progressive disease
S0075,ARM5,TTP,112.0,0,progressive disease
S0075,ARM5,DOR,56.0,0,progressive disease
S0075,ARM5,TTR,56.0,0,first response
S0077,ARM5,PFS,168.0,0,progressive disease
S0077,ARM5,TTP,168.0,0,progressive disease
S0080,ARM5,PFS,56.0,0,progressive disease
S0080,ARM5,TTP,56.0,0,progressive disease
S0084,ARM5,PFS,697.7,0,death
S0084,ARM5,TTP,672.0,1,censored at last adequate tumour assessment
S0084,ARM5,DOR,641.7,0,death
S0084,ARM5,TTR,56.0,0,first response
S0085,ARM5,PFS,56.0,0,progressive disease
S0085,ARM5,TTP,56.0,0,progressive disease
S0089,ARM5,PFS,112.0,0,progressive disease
S0089,ARM5,TTP,112.0,0,progressive disease
S0090,ARM5,PFS,280.0,0,progressive disease
S0090,ARM5,TTP,280.0,0,progressive disease
S0090,ARM5,DOR,224.0,0,progressive disease
S0090,ARM5,TTR,56.0,0,first response
S0092,ARM5,PFS,472.0,0,death
S0092,ARM5,TTP,448.0,1,censored at last adequate tumour assessment
S0105,ARM5,PFS,280.0,0,progressive disease
S0105,ARM5,TTP,280.0,0,progressive disease
S0106,ARM5,PFS,1960.0,0,progressive disease
S0106,ARM5,TTP,1960.0,0,progressive disease
S0106,ARM5,DOR,1848.0,0,progressive disease
S0106,ARM5,TTR,112.0,0,first response
S0109,ARM5,PFS,56.0,0,progressive disease
S0109,ARM5,TTP,56.0,0,progressive disease
S0110,ARM5,PFS,8.0,0,death
S0110,ARM5,TTP,0.0,1,censored at last adequate tumour assessment
S0119,ARM5,PFS,112.0,0,progressive disease
S0119,ARM5,TTP,112.0,0,progressive disease
S0120,ARM5,PFS,160.9,0,death
S0120,ARM5,TTP,112.0,1,censored at last adequate tumour assessment
S0120,ARM5,DOR,104.9,0,death
S0120,ARM5,TTR,56.0,0,first response
S0125,ARM5,PFS,280.0,0,progressive disease
S0125,ARM5,TTP,280.0,0,progressive disease
S0125,ARM5,DOR,168.0,0,progressive disease
S0125,ARM5,TTR,112.0,0,first response
S0130,ARM5,PFS,616.0,0,progressive disease
S0130,ARM5,TTP,616.0,0,progressive disease
S0138,ARM5,PFS,224.0,0,progressive disease
S0138,ARM5,TTP,224.0,0,progressive disease
S0138,ARM5,DOR,168.0,0,progressive disease
S0138,ARM5,TTR,56.0,0,first response
S0148,ARM5,PFS,56.0,0,progressive disease
S0148,ARM5,TTP,56.0,0,progressive disease
S0150,ARM5,PFS,672.0,0,progressive disease
S0150,ARM5,TTP,672.0,0,progressive disease
S0155,ARM5,PFS,392.0,0,progressive disease
S0155,ARM5,TTP,392.0,0,progressive disease
S0156,ARM5,PFS,353.0,0,death
S0156,ARM5,TTP,336.0,1,censored at last adequate tumour assessment
S0156,ARM5,DOR,297.0,0,death
S0156,ARM5,TTR,56.0,0,first response
S0157,ARM5,PFS,168.0,0,progressive disease
S0157,ARM5,TTP,168.0,0,progressive disease
S0157,ARM5,DOR,56.0,0,progressive disease
S0157,ARM5,TTR,112.0,0,first response
S0162,ARM5,PFS,336.0,0,progressive disease
S0162,ARM5,TTP,336.0,0,progressive disease
S0162,ARM5,DOR,224.0,0,progressive disease
S0162,ARM5,TTR,112.0,0,first response
S0164,ARM5,PFS,56.0,0,progressive disease
S0164,ARM5,TTP,56.0,0,progressive disease
S0167,ARM5,PFS,168.0,0,progressive disease
S0167,ARM5,TTP,168.0,0,progressive disease
S0169,ARM5,PFS,126.6,0,death
S0169,ARM5,TTP,112.0,1,censored at last adequate tumour assessment
S0170,ARM5,PFS,112.0,0,progressive disease
S0170,ARM5,TTP,112.0,0,progressive disease
S0179,ARM5,PFS,336.0,0,progressive disease
S0179,ARM5,TTP,336.0,0,progressive disease
S0183,ARM5,PFS,112.0,0,progressive disease
S0183,ARM5,TTP,112.0,0,progressive disease
S0185,ARM5,PFS,784.0,0,progressive disease
S0185,ARM5,TTP,784.0,0,progressive disease
S0186,ARM5,PFS,952.0,0,progressive disease
S0186,ARM5,TTP,952.0,0,progressive disease
S0187,ARM5,PFS,224.0,0,progressive disease
S0187,ARM5,TTP,224.0,0,progressive disease
S0187,ARM5,DOR,112.0,0,progressive disease
S0187,ARM5,TTR,112.0,0,first response
S0002,ARM8,PFS,224.0,0,progressive disease
S0002,ARM8,TTP,224.0,0,progressive disease
S0002,ARM8,DOR,112.0,0,progressive disease
S0002,ARM8,TTR,112.0,0,first response
S0019,ARM8,PFS,546.9,0,death
S0019,ARM8,TTP,504.0,1,censored at last adequate tumour assessment
S0019,ARM8,DOR,490.9,0,death
S0019,ARM8,TTR,56.0,0,first response
S0022,ARM8,PFS,560.0,0,progressive disease
S0022,ARM8,TTP,560.0,0,progressive disease
S0027,ARM8,PFS,392.0,0,progressive disease
S0027,ARM8,TTP,392.0,0,progressive disease
S0027,ARM8,DOR,336.0,0,progressive disease
S0027,ARM8,TTR,56.0,0,first response
S0028,ARM8,PFS,56.0,0,progressive disease
S0028,ARM8,TTP,56.0,0,progressive disease
S0033,ARM8,PFS,392.0,0,progressive disease
S0033,ARM8,TTP,392.0,0,progressive disease
S0033,ARM8,DOR,280.0,0,progressive disease
S0033,ARM8,TTR,112.0,0,first response
S0036,ARM8,PFS,142.2,0,death
S0036,ARM8,TTP,112.0,1,censored at last adequate tumour assessment
S0036,ARM8,DOR,86.2,0,death
S0036,ARM8,TTR,56.0,0,first response
S0037,ARM8,PFS,168.0,0,progressive disease
S0037,ARM8,TTP,168.0,0,progressive disease
S0039,ARM8,PFS,56.0,0,progressive disease
S0039,ARM8,TTP,56.0,0,progressive disease
S0041,ARM8,PFS,168.0,0,progressive disease
S0041,ARM8,TTP,168.0,0,progressive disease
S0041,ARM8,DOR,56.0,0,progressive disease
S0041,ARM8,TTR,112.0,0,first response
S0045,ARM8,PFS,168.0,0,progressive disease
S0045,ARM8,TTP,168.0,0,progressive disease
S0045,ARM8,DOR,56.0,0,progressive disease
S0045,ARM8,TTR,112.0,0,first response
S0049,ARM8,PFS,112.0,0,progressive disease
S0049,ARM8,TTP,112.0,0,progressive disease
S0050,ARM8,PFS,616.0,0,progressive disease
S0050,ARM8,TTP,616.0,0,progressive disease
S0050,ARM8,DOR,504.0,0,progressive disease
S0050,ARM8,TTR,112.0,0,first response
S0057,ARM8,PFS,625.2,0,death
S0057,ARM8,TTP,616.0,1,censored at last adequate tumour assessment
S0057,ARM8,DOR,569.2,0,death
S0057,ARM8,TTR,56.0,0,first response
S0079,ARM8,PFS,758.6,0,death
S0079,ARM8,TTP,728.0,1,censored at last adequate tumour assessment
S0079,ARM8,DOR,702.6,0,death
S0079,ARM8,TTR,56.0,0,first response
S0081,ARM8,PFS,56.0,0,progressive disease
S0081,ARM8,TTP,56.0,0,progressive disease
S0088,ARM8,PFS,56.0,0,progressive disease
S0088,ARM8,TTP,56.0,0,progressive disease
S0093,ARM8,PFS,518.0,0,death
S0093,ARM8,TTP,504.0,1,censored at last adequate tumour assessment
S0093,ARM8,DOR,462.0,0,death
S0093,ARM8,TTR,56.0,0,first response
S0095,ARM8,PFS,56.0,0,progressive disease
S0095,ARM8,TTP,56.0,0,progressive disease
S0098,ARM8,PFS,706.1,0,death
S0098,ARM8,TTP,672.0,1,censored at last adequate tumour assessment
S0098,ARM8,DOR,594.1,0,death
S0098,ARM8,TTR,112.0,0,first response
S0100,ARM8,PFS,224.0,0,progressive disease
S0100,ARM8,TTP,224.0,0,progressive disease
S0102,ARM8,PFS,168.0,0,progressive disease
S0102,ARM8,TTP,168.0,0,progressive disease
S0102,ARM8,DOR,112.0,0,progressive disease
S0102,ARM8,TTR,56.0,0,first response
S0108,ARM8,PFS,112.0,0,progressive disease
S0108,ARM8,TTP,112.0,0,progressive disease
S0114,ARM8,PFS,112.0,0,progressive disease
S0114,ARM8,TTP,112.0,0,progressive disease
S0117,ARM8,PFS,224.0,0,progressive disease
S0117,ARM8,TTP,224.0,0,progressive disease
S0117,ARM8,DOR,112.0,0,progressive disease
S0117,ARM8,TTR,112.0,0,first response
S0124,ARM8,PFS,168.0,0,progressive disease
S0124,ARM8,TTP,168.0,0,progressive disease
S0135,ARM8,PFS,664.2,0,death
S0135,ARM8,TTP,616.0,1,censored at last adequate tumour assessment
S0135,ARM8,DOR,608.2,0,death
S0135,ARM8,TTR,56.0,0,first response
S0136,ARM8,PFS,56.0,0,progressive disease
S0136,ARM8,TTP,56.0,0,progressive disease
S0146,ARM8,PFS,56.0,0,progressive disease
S0146,ARM8,TTP,56.0,0,progressive disease
S0151,ARM8,PFS,224.0,0,progressive disease
S0151,ARM8,TTP,224.0,0,progressive disease
S0151,ARM8,DOR,168.0,0,progressive disease
S0151,ARM8,TTR,56.0,0,first response
S0152,ARM8,PFS,168.0,0,progressive disease
S0152,ARM8,TTP,168.0,0,progressive disease
S0172,ARM8,PFS,112.0,0,progressive disease
S0172,ARM8,TTP,112.0,0,progressive disease
S0181,ARM8,PFS,840.0,0,progressive disease
S0181,ARM8,TTP,840.0,0,progressive disease
S0182,ARM8,PFS,481.3,0,death
S0182,ARM8,TTP,448.0,1,censored at last adequate tumour assessment
S0182,ARM8,DOR,425.3,0,death
S0182,ARM8,TTR,56.0,0,first response
