USUBJID,ARMCD,PARAMCD,AVAL,CNSR,EVNTDESC
S0001,ARM1,PFS,224.0,0,progressive disease
S0001,ARM1,TTP,224.0,0,progressive disease
S0003,ARM1,PFS,13.6,0,death
S0003,ARM1,TTP,0.0,1,censored at last adequate tumour assessment
S0004,ARM1,PFS,1904.0,1,censored at last adequate tumour assessment
S0004,ARM1,TTP,1904.0,1,censored at last adequate tumour assessment
S0005,ARM1,PFS,1904.0,1,censored at last adequate tumour assessment
S0005,ARM1,TTP,1904.0,1,censored at last adequate tumour assessment
S0005,ARM1,DOR,1792.0,1,censored at last adequate tumour assessment
S0005,ARM1,TTR,112.0,0,first response
S0006,ARM1,PFS,952.0,0,progressive disease
S0006,ARM1,TTP,952.0,0,progressive disease
S0006,ARM1,DOR,840.0,0,progressive disease
S0006,ARM1,TTR,112.0,0,first response
S0008,ARM1,PFS,112.0,0,progressive disease
S0008,ARM1,TTP,112.0,0,progressive disease
S0012,ARM1,PFS,112.0,0,progressive disease
S0012,ARM1,TTP,112.0,0,progressive disease
S0016,ARM1,PFS,1848.0,1,censored at last adequate tumour assessment
S0016,ARM1,TTP,1848.0,1,censored at last adequate tumour assessment
S0016,ARM1,DOR,1736.0,1,censored at last adequate tumour assessment
S0016,ARM1,TTR,112.0,0,first response
S0017,ARM1,PFS,112.0,0,progressive disease
S0017,ARM1,TTP,112.0,0,progressive disease
S0019,ARM1,PFS,56.0,1,censored at last adequate tumour assessment
S0019,ARM1,TTP,56.0,1,censored at last adequate tumour assessment
S0026,ARM1,PFS,112.0,0,progressive disease
S0026,ARM1,TTP,112.0,0,progressive disease
S0029,ARM1,PFS,840.0,0,progressive disease
S0029,ARM1,TTP,840.0,0,progressive disease
S0032,ARM1,PFS,1792.0,1,censored at last adequate tumour assessment
S0032,ARM1,TTP,1792.0,1,censored at last adequate tumour assessment
S0033,ARM1,PFS,1792.0,1,censored at last adequate tumour assessment
S0033,ARM1,TTP,1792.0,1,censored at last adequate tumour assessment
S0033,ARM1,DOR,1680.0,1,censored at last adequate tumour assessment
S0033,ARM1,TTR,112.0,0,first response
S0034,ARM1,PFS,1792.0,1,censored at last adequate tumour assessment
S0034,ARM1,TTP,1792.0,1,censored at last adequate tumour assessment
S0036,ARM1,PFS,1080.5,0,death
S0036,ARM1,TTP,1064.0,1,censored at last adequate tumour assessment
S0036,ARM1,DOR,968.5,0,death
S0036,ARM1,TTR,112.0,0,first response
S0038,ARM1,PFS,280.0,0,progressive disease
S0038,ARM1,TTP,280.0,0,progressive disease
S0039,ARM1,PFS,168.0,0,progressive disease
S0039,ARM1,TTP,168.0,0,progressive disease
S0040,ARM1,PFS,1792.0,1,censored at last adequate tumour assessment
S0040,ARM1,TTP,1792.0,1,censored at last adequate tumour assessment
S0041,ARM1,PFS,1792.0,1,censored at last adequate tumour assessment
S0041,ARM1,TTP,1792.0,1,censored at last adequate tumour assessment
S0041,ARM1,DOR,1680.0,1,censored at last adequate tumour assessment
S0041,ARM1,TTR,112.0,0,first response
S0046,ARM1,PFS,1736.0,1,censored at last adequate tumour assessment
S0046,ARM1,TTP,1736.0,1,censored at last adequate tumour assessment
S0049,ARM1,PFS,1736.0,1,censored at last adequate tumour assessment
S0049,ARM1,TTP,1736.0,1,censored at last adequate tumour assessment
S0049,ARM1,DOR,1624.0,1,censored at last adequate tumour assessment
S0049,ARM1,TTR,112.0,0,first response
S0050,ARM1,PFS,178.0,0,death
S0050,ARM1,TTP,168.0,1,censored at last adequate tumour assessment
S0052,ARM1,PFS,1736.0,1,censored at last adequate tumour assessment
S0052,ARM1,TTP,1736.0,1,censored at last adequate tumour assessment
S0054,ARM1,PFS,1680.0,1,censored at last adequate tumour assessment
S0054,ARM1,TTP,1680.0,1,censored at last adequate tumour assessment
S0054,ARM1,DOR,1568.0,1,censored at last adequate tumour assessment
S0054,ARM1,TTR,112.0,0,first response
S0056,ARM1,PFS,159.9,0,death
S0056,ARM1,TTP,112.0,1,censored at last adequate tumour assessment
S0057,ARM1,PFS,1680.0,1,censored at last adequate tumour assessment
S0057,ARM1,TTP,1680.0,1,censored at last adequate tumour assessment
S0058,ARM1,PFS,946.6,0,death
S0058,ARM1,TTP,896.0,1,censored at last adequate tumour assessment
S0058,ARM1,DOR,834.6,0,death
S0058,ARM1,TTR,112.0,0,first response
S0059,ARM1,PFS,0.0,1,censored at last adequate tumour assessment
S0059,ARM1,TTP,0.0,1,censored at last adequate tumour assessment
S0060,ARM1,PFS,168.0,0,progressive disease
S0060,ARM1,TTP,168.0,0,progressive disease
S0060,ARM1,DOR,56.0,0,progressive disease
S0060,ARM1,TTR,112.0,0,first response
S0061,ARM1,PFS,112.0,0,progressive disease
S0061,ARM1,TTP,112.0,0,progressive disease
S0063,ARM1,PFS,504.0,0,progressive disease
S0063,ARM1,TTP,504.0,0,progressive disease
S0064,ARM1,PFS,108.0,0,death
S0064,ARM1,TTP,56.0,1,censored at last adequate tumour assessment
S0066,ARM1,PFS,56.0,0,progressive disease
S0066,ARM1,TTP,56.0,0,progressive disease
S0069,ARM1,PFS,0.0,1,censored at last adequate tumour assessment
S0069,ARM1,TTP,0.0,1,censored at last adequate tumour assessment
S0072,ARM1,PFS,336.0,0,progressive disease
S0072,ARM1,TTP,336.0,0,progressive disease
S0073,ARM1,PFS,1680.0,1,censored at last adequate tumour assessment
S0073,ARM1,TTP,1680.0,1,censored at last adequate tumour assessment
S0074,ARM1,PFS,594.0,0,death
S0074,ARM1,TTP,560.0,1,censored at last adequate tumour assessment
S0077,ARM1,PFS,56.0,1,censored at last adequate tumour assessment
S0077,ARM1,TTP,56.0,1,censored at last adequate tumour assessment
S0081,ARM1,PFS,1624.0,1,censored at last adequate tumour assessment
S0081,ARM1,TTP,1624.0,1,censored at last adequate tumour assessment
S0083,ARM1,PFS,1624.0,1,censored at last adequate tumour assessment
S0083,ARM1,TTP,1624.0,1,censored at last adequate tumour assessment
S0083,ARM1,DOR,1512.0,1,censored at last adequate tumour assessment
S0083,ARM1,TTR,112.0,0,first response
S0084,ARM1,PFS,840.0,0,progressive disease
S0084,ARM1,TTP,840.0,0,progressive disease
S0085,ARM1,PFS,112.0,0,progressive disease
S0085,ARM1,TTP,112.0,0,progressive disease
S0090,ARM1,PFS,336.0,0,progressive disease
S0090,ARM1,TTP,336.0,0,progressive disease
S0092,ARM1,PFS,1568.0,1,censored at last adequate tumour assessment
S0092,ARM1,TTP,1568.0,1,censored at last adequate tumour assessment
S0093,ARM1,PFS,1568.0,1,censored at last adequate tumour assessment
S0093,ARM1,TTP,1568.0,1,censored at last adequate tumour assessment
S0095,ARM1,PFS,1568.0,1,censored at last adequate tumour assessment
S0095,ARM1,TTP,1568.0,1,censored at last adequate tumour assessment
S0095,ARM1,DOR,1456.0,1,censored at last adequate tumour assessment
S0095,ARM1,TTR,112.0,0,first response
S0097,ARM1,PFS,392.0,0,progressive disease
S0097,ARM1,TTP,392.0,0,progressive disease
S0100,ARM1,PFS,168.0,0,progressive disease
S0100,ARM1,TTP,168.0,0,progressive disease
S0101,ARM1,PFS,1512.0,1,censored at last adequate tumour assessment
S0101,ARM1,TTP,1512.0,1,censored at last adequate tumour assessment
S0101,ARM1,DOR,1400.0,1,censored at last adequate tumour assessment
S0101,ARM1,TTR,112.0,0,first response
S0102,ARM1,PFS,448.0,0,progressive disease
S0102,ARM1,TTP,448.0,0,progressive disease
S0103,ARM1,PFS,1512.0,1,censored at last adequate tumour assessment
S0103,ARM1,TTP,1512.0,1,censored at last adequate tumour assessment
S0103,ARM1,DOR,1400.0,1,censored at last adequate tumour assessment
S0103,ARM1,TTR,112.0,0,first response
S0104,ARM1,PFS,657.4,0,death
S0104,ARM1,TTP,616.0,1,censored at last adequate tumour assessment
S0105,ARM1,PFS,1512.0,1,censored at last adequate tumour assessment
S0105,ARM1,TTP,1512.0,1,censored at last adequate tumour assessment
S0105,ARM1,DOR,1400.0,1,censored at last adequate tumour assessment
S0105,ARM1,TTR,112.0,0,first response
S0106,ARM1,PFS,1512.0,1,censored at last adequate tumour assessment
S0106,ARM1,TTP,1512.0,1,censored at last adequate tumour assessment
S0108,ARM1,PFS,56.0,1,censored at last adequate tumour assessment
S0108,ARM1,TTP,56.0,1,censored at last adequate tumour assessment
S0109,ARM1,PFS,280.0,0,progressive disease
S0109,ARM1,TTP,280.0,0,progressive disease
S0110,ARM1,PFS,519.9,0,death
S0110,ARM1,TTP,504.0,1,censored at last adequate tumour assessment
S0110,ARM1,DOR,407.9,0,death
S0110,ARM1,TTR,112.0,0,first response
S0111,ARM1,PFS,1456.0,1,censored at last adequate tumour assessment
S0111,ARM1,TTP,1456.0,1,censored at last adequate tumour assessment
S0114,ARM1,PFS,145.0,0,death
S0114,ARM1,TTP,112.0,1,censored at last adequate tumour assessment
S0116,ARM1,PFS,112.0,1,censored at last adequate tumour assessment
S0116,ARM1,TTP,112.0,1,censored at last adequate tumour assessment
S0117,ARM1,PFS,392.0,0,progressive disease
S0117,ARM1,TTP,392.0,0,progressive disease
S0119,ARM1,PFS,112.0,0,progressive disease
S0119,ARM1,TTP,112.0,0,progressive disease
S0120,ARM1,PFS,56.0,1,censored at last adequate tumour assessment
S0120,ARM1,TTP,56.0,1,censored at last adequate tumour assessment
S0121,ARM1,PFS,1456.0,1,censored at last adequate tumour assessment
S0121,ARM1,TTP,1456.0,1,censored at last adequate tumour assessment
S0122,ARM1,PFS,1456.0,1,censored at last adequate tumour assessment
S0122,ARM1,TTP,1456.0,1,censored at last adequate tumour assessment
S0124,ARM1,PFS,1456.0,1,censored at last adequate tumour assessment
S0124,ARM1,TTP,1456.0,1,censored at last adequate tumour assessment
S0125,ARM1,PFS,112.0,1,censored at last adequate tumour assessment
S0125,ARM1,TTP,112.0,1,censored at last adequate tumour assessment
S0126,ARM1,PFS,56.0,0,progressive disease
S0126,ARM1,TTP,56.0,0,progressive disease
S0128,ARM1,PFS,1400.0,1,censored at last adequate tumour assessment
S0128,ARM1,TTP,1400.0,1,censored at last adequate tumour assessment
S0129,ARM1,PFS,1400.0,1,censored at last adequate tumour assessment
S0129,ARM1,TTP,1400.0,1,censored at last adequate tumour assessment
S0129,ARM1,DOR,1288.0,1,censored at last adequate tumour assessment
S0129,ARM1,TTR,112.0,0,first response
S0131,ARM1,PFS,1400.0,1,censored at last adequate tumour assessment
S0131,ARM1,TTP,1400.0,1,censored at last adequate tumour assessment
S0131,ARM1,DOR,1288.0,1,censored at last adequate tumour assessment
S0131,ARM1,TTR,112.0,0,first response
S0137,ARM1,PFS,560.0,0,progressive disease
S0137,ARM1,TTP,560.0,0,progressive disease
S0139,ARM1,PFS,1344.0,1,censored at last adequate tumour assessment
S0139,ARM1,TTP,1344.0,1,censored at last adequate tumour assessment
S0140,ARM1,PFS,168.0,0,progressive disease
S0140,ARM1,TTP,168.0,0,progressive disease
S0140,ARM1,DOR,56.0,0,progressive disease
S0140,ARM1,TTR,112.0,0,first response
S0145,ARM1,PFS,112.0,0,progressive disease
S0145,ARM1,TTP,112.0,0,progressive disease
S0149,ARM1,PFS,112.0,0,progressive disease
S0149,ARM1,TTP,112.0,0,progressive disease
S0152,ARM1,PFS,1288.0,1,censored at last adequate tumour assessment
S0152,ARM1,TTP,1288.0,1,censored at last adequate tumour assessment
S0152,ARM1,DOR,1176.0,1,censored at last adequate tumour assessment
S0152,ARM1,TTR,112.0,0,first response
S0155,ARM1,PFS,1288.0,1,censored at last adequate tumour assessment
S0155,ARM1,TTP,1288.0,1,censored at last adequate tumour assessment
S0155,ARM1,DOR,1176.0,1,censored at last adequate tumour assessment
S0155,ARM1,TTR,112.0,0,first response
S0156,ARM1,PFS,1288.0,1,censored at last adequate tumour assessment
S0156,ARM1,TTP,1288.0,1,censored at last adequate tumour assessment
S0160,ARM1,PFS,168.0,0,progressive disease
S0160,ARM1,TTP,168.0,0,progressive disease
S0163,ARM1,PFS,1232.0,1,censored at last adequate tumour assessment
S0163,ARM1,TTP,1232.0,1,censored at last adequate tumour assessment
S0166,ARM1,PFS,1176.0,0,progressive disease
S0166,ARM1,TTP,1176.0,0,progressive disease
S0167,ARM1,PFS,112.0,1,censored at last adequate tumour assessment
S0167,ARM1,TTP,112.0,1,censored at last adequate tumour assessment
S0171,ARM1,PFS,1232.0,1,censored at last adequate tumour assessment
S0171,ARM1,TTP,1232.0,1,censored at last adequate tumour assessment
S0172,ARM1,PFS,1232.0,1,censored at last adequate tumour assessment
S0172,ARM1,TTP,1232.0,1,censored at last adequate tumour assessment
S0173,ARM1,PFS,1232.0,1,censored at last adequate tumour assessment
S0173,ARM1,TTP,1232.0,1,censored at last adequate tumour assessment
S0174,ARM1,PFS,56.0,0,progressive disease
S0174,ARM1,TTP,56.0,0,progressive disease
S0178,ARM1,PFS,376.4,0,death
S0178,ARM1,TTP,336.0,1,censored at last adequate tumour assessment
S0180,ARM1,PFS,504.0,0,progressive disease
S0180,ARM1,TTP,504.0,0,progressive disease
S0181,ARM1,PFS,280.0,0,progressive disease
S0181,ARM1,TTP,280.0,0,progressive disease
S0183,ARM1,PFS,1176.0,1,censored at last adequate tumour assessment
S0183,ARM1,TTP,1176.0,1,censored at last adequate tumour assessment
S0186,ARM1,PFS,336.0,0,progressive disease
S0186,ARM1,TTP,336.0,0,progressive disease
S0187,ARM1,PFS,1176.0,1,censored at last adequate tumour assessment
S0187,ARM1,TTP,1176.0,1,censored at last adequate tumour assessment
S0190,ARM1,PFS,1120.0,1,censored at last adequate tumour assessment
S0190,ARM1,TTP,1120.0,1,censored at last adequate tumour assessment
S0191,ARM1,PFS,1120.0,1,censored at last adequate tumour assessment
S0191,ARM1,TTP,1120.0,1,censored at last adequate tumour assessment
S0191,ARM1,DOR,1008.0,1,censored at last adequate tumour assessment
S0191,ARM1,TTR,112.0,0,first response
S0192,ARM1,PFS,1120.0,1,censored at last adequate tumour assessment
S0192,ARM1,TTP,1120.0,1,censored at last adequate tumour assessment
S0194,ARM1,PFS,56.0,0,progressive disease
S0194,ARM1,TTP,56.0,0,progressive disease
S0195,ARM1,PFS,443.0,0,death
S0195,ARM1,TTP,392.0,1,censored at last adequate tumour assessment
S0195,ARM1,DOR,331.0,0,death
S0195,ARM1,TTR,112.0,0,first response
S0201,ARM1,PFS,448.0,0,progressive disease
S0201,ARM1,TTP,448.0,0,progressive disease
S0204,ARM1,PFS,1064.0,1,censored at last adequate tumour assessment
S0204,ARM1,TTP,1064.0,1,censored at last adequate tumour assessment
S0208,ARM1,PFS,234.2,0,death
S0208,ARM1,TTP,224.0,1,censored at last adequate tumour assessment
S0208,ARM1,DOR,122.2,0,death
S0208,ARM1,TTR,112.0,0,first response
S0209,ARM1,PFS,112.0,0,progressive disease
S0209,ARM1,TTP,112.0,0,progressive disease
S0212,ARM1,PFS,1064.0,1,censored at last adequate tumour assessment
S0212,ARM1,TTP,1064.0,1,censored at last adequate tumour assessment
S0213,ARM1,PFS,392.0,0,progressive disease
S0213,ARM1,TTP,392.0,0,progressive disease
S0219,ARM1,PFS,504.0,0,progressive disease
S0219,ARM1,TTP,504.0,0,progressive disease
S0219,ARM1,DOR,392.0,0,progressive disease
S0219,ARM1,TTR,112.0,0,first response
S0222,ARM1,PFS,0.0,1,censored at last adequate tumour assessment
S0222,ARM1,TTP,0.0,1,censored at last adequate tumour assessment
S0223,ARM1,PFS,952.0,1,censored at last adequate tumour assessment
S0223,ARM1,TTP,952.0,1,censored at last adequate tumour assessment
S0224,ARM1,PFS,952.0,1,censored at last adequate tumour assessment
S0224,ARM1,TTP,952.0,1,censored at last adequate tumour assessment
S0224,ARM1,DOR,840.0,1,censored at last adequate tumour assessment
S0224,ARM1,TTR,112.0,0,first response
S0225,ARM1,PFS,952.0,1,censored at last adequate tumour assessment
S0225,ARM1,TTP,952.0,1,censored at last adequate tumour assessment
S0226,ARM1,PFS,952.0,1,censored at last adequate tumour assessment
S0226,ARM1,TTP,952.0,1,censored at last adequate tumour assessment
S0226,ARM1,DOR,840.0,1,censored at last adequate tumour assessment
S0226,ARM1,TTR,112.0,0,first response
S0227,ARM1,PFS,952.0,1,censored at last adequate tumour assessment
S0227,ARM1,TTP,952.0,1,censored at last adequate tumour assessment
S0227,ARM1,DOR,840.0,1,censored at last adequate tumour assessment
S0227,ARM1,TTR,112.0,0,first response
S0231,ARM1,PFS,112.0,0,progressive disease
S0231,ARM1,TTP,112.0,0,progressive disease
S0232,ARM1,PFS,952.0,1,censored at last adequate tumour assessment
S0232,ARM1,TTP,952.0,1,censored at last adequate tumour assessment
S0234,ARM1,PFS,56.0,1,censored at last adequate tumour assessment
S0234,ARM1,TTP,56.0,1,censored at last adequate tumour assessment
S0235,ARM1,PFS,952.0,1,censored at last adequate tumour assessment
S0235,ARM1,TTP,952.0,1,censored at last adequate tumour assessment
S0235,ARM1,DOR,840.0,1,censored at last adequate tumour assessment
S0235,ARM1,TTR,112.0,0,first response
S0237,ARM1,PFS,336.0,0,progressive disease
S0237,ARM1,TTP,336.0,0,progressive disease
S0238,ARM1,PFS,224.0,0,progressive disease
S0238,ARM1,TTP,224.0,0,progressive disease
S0239,ARM1,PFS,896.0,1,censored at last adequate tumour assessment
S0239,ARM1,TTP,896.0,1,censored at last adequate tumour assessment
S0242,ARM1,PFS,896.0,1,censored at last adequate tumour assessment
S0242,ARM1,TTP,896.0,1,censored at last adequate tumour assessment
S0242,ARM1,DOR,784.0,1,censored at last adequate tumour assessment
S0242,ARM1,TTR,112.0,0,first response
S0244,ARM1,PFS,567.0,0,death
S0244,ARM1,TTP,560.0,1,censored at last adequate tumour assessment
S0245,ARM1,PFS,896.0,1,censored at last adequate tumour assessment
S0245,ARM1,TTP,896.0,1,censored at last adequate tumour assessment
S0245,ARM1,DOR,784.0,1,censored at last adequate tumour assessment
S0245,ARM1,TTR,112.0,0,first response
S0248,ARM1,PFS,56.0,0,progressive disease
S0248,ARM1,TTP,56.0,0,progressive disease
S0250,ARM1,PFS,56.0,0,progressive disease
S0250,ARM1,TTP,56.0,0,progressive disease
S0251,ARM1,PFS,56.0,0,progressive disease
S0251,ARM1,TTP,56.0,0,progressive disease
S0252,ARM1,PFS,56.0,1,censored at last adequate tumour assessment
S0252,ARM1,TTP,56.0,1,censored at last adequate tumour assessment
S0256,ARM1,PFS,840.0,1,censored at last adequate tumour assessment
S0256,ARM1,TTP,840.0,1,censored at last adequate tumour assessment
S0259,ARM1,PFS,840.0,1,censored at last adequate tumour assessment
S0259,ARM1,TTP,840.0,1,censored at last adequate tumour assessment
S0260,ARM1,PFS,448.1,0,death
S0260,ARM1,TTP,448.0,1,censored at last adequate tumour assessment
S0260,ARM1,DOR,336.1,0,death
S0260,ARM1,TTR,112.0,0,first response
S0263,ARM1,PFS,56.0,0,progressive disease
S0263,ARM1,TTP,56.0,0,progressive disease
S0264,ARM1,PFS,336.0,0,progressive disease
S0264,ARM1,TTP,336.0,0,progressive disease
S0265,ARM1,PFS,559.4,0,death
S0265,ARM1,TTP,504.0,1,censored at last adequate tumour assessment
S0266,ARM1,PFS,840.0,1,censored at last adequate tumour assessment
S0266,ARM1,TTP,840.0,1,censored at last adequate tumour assessment
S0272,ARM1,PFS,784.0,1,censored at last adequate tumour assessment
S0272,ARM1,TTP,784.0,1,censored at last adequate tumour assessment
S0274,ARM1,PFS,784.0,1,censored at last adequate tumour assessment
S0274,ARM1,TTP,784.0,1,censored at last adequate tumour assessment
S0274,ARM1,DOR,672.0,1,censored at last adequate tumour assessment
S0274,ARM1,TTR,112.0,0,first response
S0275,ARM1,PFS,784.0,1,censored at last adequate tumour assessment
S0275,ARM1,TTP,784.0,1,censored at last adequate tumour assessment
S0275,ARM1,DOR,672.0,1,censored at last adequate tumour assessment
S0275,ARM1,TTR,112.0,0,first response
S0277,ARM1,PFS,280.0,0,progressive disease
S0277,ARM1,TTP,280.0,0,progressive disease
S0279,ARM1,PFS,784.0,1,censored at last adequate tumour assessment
S0279,ARM1,TTP,784.0,1,censored at last adequate tumour assessment
S0280,ARM1,PFS,728.0,1,censored at last adequate tumour assessment
S0280,ARM1,TTP,728.0,1,censored at last adequate tumour assessment
S0281,ARM1,PFS,728.0,1,censored at last adequate tumour assessment
S0281,ARM1,TTP,728.0,1,censored at last adequate tumour assessment
S0283,ARM1,PFS,728.0,1,censored at last adequate tumour assessment
S0283,ARM1,TTP,728.0,1,censored at last adequate tumour assessment
S0283,ARM1,DOR,616.0,1,censored at last adequate tumour assessment
S0283,ARM1,TTR,112.0,0,first response
S0287,ARM1,PFS,728.0,1,censored at last adequate tumour assessment
S0287,ARM1,TTP,728.0,1,censored at last adequate tumour assessment
S0287,ARM1,DOR,616.0,1,censored at last adequate tumour assessment
S0287,ARM1,TTR,112.0,0,first response
S0288,ARM1,PFS,0.0,1,censored at last adequate tumour assessment
S0288,ARM1,TTP,0.0,1,censored at last adequate tumour assessment
S0289,ARM1,PFS,56.0,0,progressive disease
S0289,ARM1,TTP,56.0,0,progressive disease
S0293,ARM1,PFS,728.0,1,censored at last adequate tumour assessment
S0293,ARM1,TTP,728.0,1,censored at last adequate tumour assessment
S0294,ARM1,PFS,224.0,0,progressive disease
S0294,ARM1,TTP,224.0,0,progressive disease
S0296,ARM1,PFS,728.0,1,censored at last adequate tumour assessment
S0296,ARM1,TTP,728.0,1,censored at last adequate tumour assessment
S0296,ARM1,DOR,616.0,1,censored at last adequate tumour assessment
S0296,ARM1,TTR,112.0,0,first response
S0299,ARM1,PFS,112.0,0,progressive disease
S0299,ARM1,TTP,112.0,0,progressive disease
S0301,ARM1,PFS,672.0,1,censored at last adequate tumour assessment
S0301,ARM1,TTP,672.0,1,censored at last adequate tumour assessment
S0302,ARM1,PFS,672.0,1,censored at last adequate tumour assessment
S0302,ARM1,TTP,672.0,1,censored at last adequate tumour assessment
S0303,ARM1,PFS,56.0,0,progressive disease
S0303,ARM1,TTP,56.0,0,progressive disease
S0304,ARM1,PFS,0.0,1,censored at last adequate tumour assessment
S0304,ARM1,TTP,0.0,1,censored at last adequate tumour assessment
S0305,ARM1,PFS,46.8,0,death
S0305,ARM1,TTP,0.0,1,censored at last adequate tumour assessment
S0307,ARM1,PFS,672.0,1,censored at last adequate tumour assessment
S0307,ARM1,TTP,672.0,1,censored at last adequate tumour assessment
S0307,ARM1,DOR,560.0,1,censored at last adequate tumour assessment
S0307,ARM1,TTR,112.0,0,first response
S0308,ARM1,PFS,672.0,1,censored at last adequate tumour assessment
S0308,ARM1,TTP,672.0,1,censored at last adequate tumour assessment
S0309,ARM1,PFS,672.0,1,censored at last adequate tumour assessment
S0309,ARM1,TTP,672.0,1,censored at last adequate tumour assessment
S0311,ARM1,PFS,504.0,0,progressive disease
S0311,ARM1,TTP,504.0,0,progressive disease
S0315,ARM1,PFS,616.0,1,censored at last adequate tumour assessment
S0315,ARM1,TTP,616.0,1,censored at last adequate tumour assessment
S0315,ARM1,DOR,504.0,1,censored at last adequate tumour assessment
S0315,ARM1,TTR,112.0,0,first response
S0316,ARM1,PFS,168.0,0,progressive disease
S0316,ARM1,TTP,168.0,0,progressive disease
S0318,ARM1,PFS,616.0,1,censored at last adequate tumour assessment
S0318,ARM1,TTP,616.0,1,censored at last adequate tumour assessment
S0318,ARM1,DOR,504.0,1,censored at last adequate tumour assessment
S0318,ARM1,TTR,112.0,0,first response
S0319,ARM1,PFS,392.0,0,progressive disease
S0319,ARM1,TTP,392.0,0,progressive disease
S0320,ARM1,PFS,336.0,0,progressive disease
S0320,ARM1,TTP,336.0,0,progressive disease
S0321,ARM1,PFS,56.0,0,progressive disease
S0321,ARM1,TTP,56.0,0,progressive disease
S0322,ARM1,PFS,56.0,1,censored at last adequate tumour assessment
S0322,ARM1,TTP,56.0,1,censored at last adequate tumour assessment
S0323,ARM1,PFS,616.0,1,censored at last adequate tumour assessment
S0323,ARM1,TTP,616.0,1,censored at last adequate tumour assessment
S0326,ARM1,PFS,616.0,1,censored at last adequate tumour assessment
S0326,ARM1,TTP,616.0,1,censored at last adequate tumour assessment
S0326,ARM1,DOR,504.0,1,censored at last adequate tumour assessment
S0326,ARM1,TTR,112.0,0,first response
S0327,ARM1,PFS,616.0,1,censored at last adequate tumour assessment
S0327,ARM1,TTP,616.0,1,censored at last adequate tumour assessment
S0328,ARM1,PFS,392.0,0,progressive disease
S0328,ARM1,TTP,392.0,0,progressive disease
S0332,ARM1,PFS,560.0,1,censored at last adequate tumour assessment
S0332,ARM1,TTP,560.0,1,censored at last adequate tumour assessment
S0332,ARM1,DOR,448.0,1,censored at last adequate tumour assessment
S0332,ARM1,TTR,112.0,0,first response
S0334,ARM1,PFS,560.0,1,censored at last adequate tumour assessment
S0334,ARM1,TTP,560.0,1,censored at last adequate tumour assessment
S0334,ARM1,DOR,448.0,1,censored at last adequate tumour assessment
S0334,ARM1,TTR,112.0,0,first response
S0335,ARM1,PFS,56.0,0,progressive disease
S0335,ARM1,TTP,56.0,0,progressive disease
S0336,ARM1,PFS,560.0,1,censored at last adequate tumour assessment
S0336,ARM1,TTP,560.0,1,censored at last adequate tumour assessment
S0345,ARM1,PFS,504.0,1,censored at last adequate tumour assessment
S0345,ARM1,TTP,504.0,1,censored at last adequate tumour assessment
S0345,ARM1,DOR,392.0,1,censored at last adequate tumour assessment
S0345,ARM1,TTR,112.0,0,first response
S0346,ARM1,PFS,224.0,0,progressive disease
S0346,ARM1,TTP,224.0,0,progressive disease
S0347,ARM1,PFS,62.0,0,death
S0347,ARM1,TTP,56.0,1,censored at last adequate tumour assessment
S0349,ARM1,PFS,151.8,0,death
S0349,ARM1,TTP,112.0,1,censored at last adequate tumour assessment
S0349,ARM1,DOR,39.8,0,death
S0349,ARM1,TTR,112.0,0,first response
S0350,ARM1,PFS,504.0,1,censored at last adequate tumour assessment
S0350,ARM1,TTP,504.0,1,censored at last adequate tumour assessment
S0350,ARM1,DOR,392.0,1,censored at last adequate tumour assessment
S0350,ARM1,TTR,112.0,0,first response
S0352,ARM1,PFS,504.0,1,censored at last adequate tumour assessment
S0352,ARM1,TTP,504.0,1,censored at last adequate tumour assessment
S0354,ARM1,PFS,504.0,1,censored at last adequate tumour assessment
S0354,ARM1,TTP,504.0,1,censored at last adequate tumour assessment
S0354,ARM1,DOR,392.0,1,censored at last adequate tumour assessment
S0354,ARM1,TTR,112.0,0,first response
S0355,ARM1,PFS,91.5,0,death
S0355,ARM1,TTP,56.0,1,censored at last adequate tumour assessment
S0356,ARM1,PFS,504.0,1,censored at last adequate tumour assessment
S0356,ARM1,TTP,504.0,1,censored at last adequate tumour assessment
S0361,ARM1,PFS,112.0,0,progressive disease
S0361,ARM1,TTP,112.0,0,progressive disease
S0364,ARM1,PFS,448.0,1,censored at last adequate tumour assessment
S0364,ARM1,TTP,448.0,1,censored at last adequate tumour assessment
S0364,ARM1,DOR,336.0,1,censored at last adequate tumour assessment
S0364,ARM1,TTR,112.0,0,first response
S0365,ARM1,PFS,336.0,0,progressive disease
S0365,ARM1,TTP,336.0,0,progressive disease
S0366,ARM1,PFS,448.0,1,censored at last adequate tumour assessment
S0366,ARM1,TTP,448.0,1,censored at last adequate tumour assessment
S0368,ARM1,PFS,448.0,1,censored at last adequate tumour assessment
S0368,ARM1,TTP,448.0,1,censored at last adequate tumour assessment
S0369,ARM1,PFS,448.0,1,censored at last adequate tumour assessment
S0369,ARM1,TTP,448.0,1,censored at last adequate tumour assessment
S0370,ARM1,PFS,448.0,1,censored at last adequate tumour assessment
S0370,ARM1,TTP,448.0,1,censored at last adequate tumour assessment
S0372,ARM1,PFS,448.0,1,censored at last adequate tumour assessment
S0372,ARM1,TTP,448.0,1,censored at last adequate tumour assessment
S0374,ARM1,PFS,56.0,0,progressive disease
S0374,ARM1,TTP,56.0,0,progressive disease
S0376,ARM1,PFS,112.0,0,progressive disease
S0376,ARM1,TTP,112.0,0,progressive disease
S0378,ARM1,PFS,448.0,1,censored at last adequate tumour assessment
S0378,ARM1,TTP,448.0,1,censored at last adequate tumour assessment
S0380,ARM1,PFS,392.0,1,censored at last adequate tumour assessment
S0380,ARM1,TTP,392.0,1,censored at last adequate tumour assessment
S0381,ARM1,PFS,392.0,1,censored at last adequate tumour assessment
S0381,ARM1,TTP,392.0,1,censored at last adequate tumour assessment
S0381,ARM1,DOR,280.0,1,censored at last adequate tumour assessment
S0381,ARM1,TTR,112.0,0,first response
S0385,ARM1,PFS,392.0,1,censored at last adequate tumour assessment
S0385,ARM1,TTP,392.0,1,censored at last adequate tumour assessment
S0385,ARM1,DOR,280.0,1,censored at last adequate tumour assessment
S0385,ARM1,TTR,112.0,0,first response
S0387,ARM1,PFS,392.0,1,censored at last adequate tumour assessment
S0387,ARM1,TTP,392.0,1,censored at last adequate tumour assessment
S0387,ARM1,DOR,280.0,1,censored at last adequate tumour assessment
S0387,ARM1,TTR,112.0,0,first response
S0388,ARM1,PFS,392.0,1,censored at last adequate tumour assessment
S0388,ARM1,TTP,392.0,1,censored at last adequate tumour assessment
S0390,ARM1,PFS,392.0,1,censored at last adequate tumour assessment
S0390,ARM1,TTP,392.0,1,censored at last adequate tumour assessment
S0392,ARM1,PFS,392.0,1,censored at last adequate tumour assessment
S0392,ARM1,TTP,392.0,1,censored at last adequate tumour assessment
S0392,ARM1,DOR,280.0,1,censored at last adequate tumour assessment
S0392,ARM1,TTR,112.0,0,first response
S0393,ARM1,PFS,168.0,0,progressive disease
S0393,ARM1,TTP,168.0,0,progressive disease
S0397,ARM1,PFS,336.0,1,censored at last adequate tumour assessment
S0397,ARM1,TTP,336.0,1,censored at last adequate tumour assessment
S0400,ARM1,PFS,336.0,1,censored at last adequate tumour assessment
S0400,ARM1,TTP,336.0,1,censored at last adequate tumour assessment
S0400,ARM1,DOR,224.0,1,censored at last adequate tumour assessment
S0400,ARM1,TTR,112.0,0,first response
S0002,ARM2,PFS,560.0,0,progressive disease
S0002,ARM2,TTP,560.0,0,progressive disease
S0007,ARM2,PFS,639.0,0,death
S0007,ARM2,TTP,616.0,1,censored at last adequate tumour assessment
S0009,ARM2,PFS,560.0,0,progressive disease
S0009,ARM2,TTP,560.0,0,progressive disease
S0010,ARM2,PFS,1904.0,1,censored at last adequate tumour assessment
S0010,ARM2,TTP,1904.0,1,censored at last adequate tumour assessment
S0011,ARM2,PFS,56.0,0,progressive disease
S0011,ARM2,TTP,56.0,0,progressive disease
S0013,ARM2,PFS,56.0,1,censored at last adequate tumour assessment
S0013,ARM2,TTP,56.0,1,censored at last adequate tumour assessment
S0014,ARM2,PFS,1848.0,1,censored at last adequate tumour assessment
S0014,ARM2,TTP,1848.0,1,censored at last adequate tumour assessment
S0015,ARM2,PFS,1848.0,1,censored at last adequate tumour assessment
S0015,ARM2,TTP,1848.0,1,censored at last adequate tumour assessment
S0018,ARM2,PFS,1848.0,1,censored at last adequate tumour assessment
S0018,ARM2,TTP,1848.0,1,censored at last adequate tumour assessment
S0020,ARM2,PFS,1022.9,0,death
S0020,ARM2,TTP,1008.0,1,censored at last adequate tumour assessment
S0020,ARM2,DOR,910.9,0,death
S0020,ARM2,TTR,112.0,0,first response
S0021,ARM2,PFS,1848.0,1,censored at last adequate tumour assessment
S0021,ARM2,TTP,1848.0,1,censored at last adequate tumour assessment
S0021,ARM2,DOR,1736.0,1,censored at last adequate tumour assessment
S0021,ARM2,TTR,112.0,0,first response
S0022,ARM2,PFS,1848.0,1,censored at last adequate tumour assessment
S0022,ARM2,TTP,1848.0,1,censored at last adequate tumour assessment
S0023,ARM2,PFS,1848.0,1,censored at last adequate tumour assessment
S0023,ARM2,TTP,1848.0,1,censored at last adequate tumour assessment
S0024,ARM2,PFS,1848.0,1,censored at last adequate tumour assessment
S0024,ARM2,TTP,1848.0,1,censored at last adequate tumour assessment
S0024,ARM2,DOR,1736.0,1,censored at last adequate tumour assessment
S0024,ARM2,TTR,112.0,0,first response
S0025,ARM2,PFS,1792.0,1,censored at last adequate tumour assessment
S0025,ARM2,TTP,1792.0,1,censored at last adequate tumour assessment
S0027,ARM2,PFS,1792.0,1,censored at last adequate tumour assessment
S0027,ARM2,TTP,1792.0,1,censored at last adequate tumour assessment
S0028,ARM2,PFS,262.0,0,death
S0028,ARM2,TTP,224.0,1,censored at last adequate tumour assessment
S0028,ARM2,DOR,150.0,0,death
S0028,ARM2,TTR,112.0,0,first response
S0030,ARM2,PFS,1792.0,1,censored at last adequate tumour assessment
S0030,ARM2,TTP,1792.0,1,censored at last adequate tumour assessment
S0030,ARM2,DOR,1680.0,1,censored at last adequate tumour assessment
S0030,ARM2,TTR,112.0,0,first response
S0031,ARM2,PFS,0.0,1,censored at last adequate tumour assessment
S0031,ARM2,TTP,0.0,1,censored at last adequate tumour assessment
S0035,ARM2,PFS,168.0,0,progressive disease
S0035,ARM2,TTP,168.0,0,progressive disease
S0037,ARM2,PFS,1792.0,1,censored at last adequate tumour assessment
S0037,ARM2,TTP,1792.0,1,censored at last adequate tumour assessment
S0042,ARM2,PFS,392.0,0,progressive disease
S0042,ARM2,TTP,392.0,0,progressive disease
S0043,ARM2,PFS,0.0,1,censored at last adequate tumour assessment
S0043,ARM2,TTP,0.0,1,censored at last adequate tumour assessment
S0044,ARM2,PFS,56.0,0,progressive disease
S0044,ARM2,TTP,56.0,0,progressive disease
S0045,ARM2,PFS,1736.0,1,censored at last adequate tumour assessment
S0045,ARM2,TTP,1736.0,1,censored at last adequate tumour assessment
S0045,ARM2,DOR,1624.0,1,censored at last adequate tumour assessment
S0045,ARM2,TTR,112.0,0,first response
S0047,ARM2,PFS,560.0,0,progressive disease
S0047,ARM2,TTP,560.0,0,progressive disease
S0048,ARM2,PFS,366.4,0,death
S0048,ARM2,TTP,336.0,1,censored at last adequate tumour assessment
S0048,ARM2,DOR,254.4,0,death
S0048,ARM2,TTR,112.0,0,first response
S0051,ARM2,PFS,1736.0,1,censored at last adequate tumour assessment
S0051,ARM2,TTP,1736.0,1,censored at last adequate tumour assessment
S0053,ARM2,PFS,1736.0,1,censored at last adequate tumour assessment
S0053,ARM2,TTP,1736.0,1,censored at last adequate tumour assessment
S0055,ARM2,PFS,1680.0,1,censored at last adequate tumour assessment
S0055,ARM2,TTP,1680.0,1,censored at last adequate tumour assessment
S0062,ARM2,PFS,1680.0,1,censored at last adequate tumour assessment
S0062,ARM2,TTP,1680.0,1,censored at last adequate tumour assessment
S0065,ARM2,PFS,1680.0,1,censored at last adequate tumour assessment
S0065,ARM2,TTP,1680.0,1,censored at last adequate tumour assessment
S0067,ARM2,PFS,1680.0,1,censored at last adequate tumour assessment
S0067,ARM2,TTP,1680.0,1,censored at last adequate tumour assessment
S0067,ARM2,DOR,1568.0,1,censored at last adequate tumour assessment
S0067,ARM2,TTR,112.0,0,first response
S0068,ARM2,PFS,224.0,0,progressive disease
S0068,ARM2,TTP,224.0,0,progressive disease
S0070,ARM2,PFS,712.0,0,death
S0070,ARM2,TTP,672.0,1,censored at last adequate tumour assessment
S0070,ARM2,DOR,600.0,0,death
S0070,ARM2,TTR,112.0,0,first response
S0071,ARM2,PFS,56.0,0,progressive disease
S0071,ARM2,TTP,56.0,0,progressive disease
S0075,ARM2,PFS,56.0,0,progressive disease
S0075,ARM2,TTP,56.0,0,progressive disease
S0076,ARM2,PFS,1624.0,1,censored at last adequate tumour assessment
S0076,ARM2,TTP,1624.0,1,censored at last adequate tumour assessment
S0078,ARM2,PFS,1624.0,1,censored at last adequate tumour assessment
S0078,ARM2,TTP,1624.0,1,censored at last adequate tumour assessment
S0079,ARM2,PFS,1624.0,1,censored at last adequate tumour assessment
S0079,ARM2,TTP,1624.0,1,censored at last adequate tumour assessment
S0080,ARM2,PFS,1624.0,1,censored at last adequate tumour assessment
S0080,ARM2,TTP,1624.0,1,censored at last adequate tumour assessment
S0080,ARM2,DOR,1512.0,1,censored at last adequate tumour assessment
S0080,ARM2,TTR,112.0,0,first response
S0082,ARM2,PFS,616.0,0,progressive disease
S0082,ARM2,TTP,616.0,0,progressive disease
S0086,ARM2,PFS,336.0,0,progressive disease
S0086,ARM2,TTP,336.0,0,progressive disease
S0087,ARM2,PFS,1568.0,1,censored at last adequate tumour assessment
S0087,ARM2,TTP,1568.0,1,censored at last adequate tumour assessment
S0087,ARM2,DOR,1456.0,1,censored at last adequate tumour assessment
S0087,ARM2,TTR,112.0,0,first response
S0088,ARM2,PFS,1568.0,1,censored at last adequate tumour assessment
S0088,ARM2,TTP,1568.0,1,censored at last adequate tumour assessment
S0089,ARM2,PFS,1568.0,1,censored at last adequate tumour assessment
S0089,ARM2,TTP,1568.0,1,censored at last adequate tumour assessment
S0091,ARM2,PFS,662.0,0,death
S0091,ARM2,TTP,616.0,1,censored at last adequate tumour assessment
S0094,ARM2,PFS,56.0,0,progressive disease
S0094,ARM2,TTP,56.0,0,progressive disease
S0096,ARM2,PFS,1512.0,1,censored at last adequate tumour assessment
S0096,ARM2,TTP,1512.0,1,censored at last adequate tumour assessment
S0096,ARM2,DOR,1400.0,1,censored at last adequate tumour assessment
S0096,ARM2,TTR,112.0,0,first response
S0098,ARM2,PFS,56.0,0,progressive disease
S0098,ARM2,TTP,56.0,0,progressive disease
S0099,ARM2,PFS,112.0,0,progressive disease
S0099,ARM2,TTP,112.0,0,progressive disease
S0107,ARM2,PFS,56.0,0,progressive disease
S0107,ARM2,TTP,56.0,0,progressive disease
S0112,ARM2,PFS,728.0,0,progressive disease
S0112,ARM2,TTP,728.0,0,progressive disease
S0112,ARM2,DOR,616.0,0,progressive disease
S0112,ARM2,TTR,112.0,0,first response
S0113,ARM2,PFS,1456.0,1,censored at last adequate tumour assessment
S0113,ARM2,TTP,1456.0,1,censored at last adequate tumour assessment
S0115,ARM2,PFS,504.0,0,progressive disease
S0115,ARM2,TTP,504.0,0,progressive disease
S0115,ARM2,DOR,392.0,0,progressive disease
S0115,ARM2,TTR,112.0,0,first response
S0118,ARM2,PFS,1456.0,1,censored at last adequate tumour assessment
S0118,ARM2,TTP,1456.0,1,censored at last adequate tumour assessment
S0123,ARM2,PFS,56.0,0,progressive disease
S0123,ARM2,TTP,56.0,0,progressive disease
S0127,ARM2,PFS,1400.0,1,censored at last adequate tumour assessment
S0127,ARM2,TTP,1400.0,1,censored at last adequate tumour assessment
S0130,ARM2,PFS,1400.0,1,censored at last adequate tumour assessment
S0130,ARM2,TTP,1400.0,1,censored at last adequate tumour assessment
S0132,ARM2,PFS,168.0,0,progressive disease
S0132,ARM2,TTP,168.0,0,progressive disease
S0133,ARM2,PFS,280.0,0,progressive disease
S0133,ARM2,TTP,280.0,0,progressive disease
S0133,ARM2,DOR,168.0,0,progressive disease
S0133,ARM2,TTR,112.0,0,first response
S0134,ARM2,PFS,672.0,0,progressive disease
S0134,ARM2,TTP,672.0,0,progressive disease
S0135,ARM2,PFS,1344.0,1,censored at last adequate tumour assessment
S0135,ARM2,TTP,1344.0,1,censored at last adequate tumour assessment
S0136,ARM2,PFS,1344.0,1,censored at last adequate tumour assessment
S0136,ARM2,TTP,1344.0,1,censored at last adequate tumour assessment
S0138,ARM2,PFS,1344.0,1,censored at last adequate tumour assessment
S0138,ARM2,TTP,1344.0,1,censored at last adequate tumour assessment
S0141,ARM2,PFS,280.0,0,progressive disease
S0141,ARM2,TTP,280.0,0,progressive disease
S0142,ARM2,PFS,1344.0,1,censored at last adequate tumour assessment
S0142,ARM2,TTP,1344.0,1,censored at last adequate tumour assessment
S0143,ARM2,PFS,1344.0,1,censored at last adequate tumour assessment
S0143,ARM2,TTP,1344.0,1,censored at last adequate tumour assessment
S0144,ARM2,PFS,1344.0,1,censored at last adequate tumour assessment
S0144,ARM2,TTP,1344.0,1,censored at last adequate tumour assessment
S0146,ARM2,PFS,656.0,0,death
S0146,ARM2,TTP,616.0,1,censored at last adequate tumour assessment
S0147,ARM2,PFS,1288.0,1,censored at last adequate tumour assessment
S0147,ARM2,TTP,1288.0,1,censored at last adequate tumour assessment
S0147,ARM2,DOR,1176.0,1,censored at last adequate tumour assessment
S0147,ARM2,TTR,112.0,0,first response
S0148,ARM2,PFS,1288.0,1,censored at last adequate tumour assessment
S0148,ARM2,TTP,1288.0,1,censored at last adequate tumour assessment
S0148,ARM2,DOR,1176.0,1,censored at last adequate tumour assessment
S0148,ARM2,TTR,112.0,0,first response
S0150,ARM2,PFS,1288.0,1,censored at last adequate tumour assessment
S0150,ARM2,TTP,1288.0,1,censored at last adequate tumour assessment
S0151,ARM2,PFS,1288.0,1,censored at last adequate tumour assessment
S0151,ARM2,TTP,1288.0,1,censored at last adequate tumour assessment
S0153,ARM2,PFS,0.0,1,censored at last adequate tumour assessment
S0153,ARM2,TTP,0.0,1,censored at last adequate tumour assessment
S0154,ARM2,PFS,1288.0,1,censored at last adequate tumour assessment
S0154,ARM2,TTP,1288.0,1,censored at last adequate tumour assessment
S0157,ARM2,PFS,56.0,0,progressive disease
S0157,ARM2,TTP,56.0,0,progressive disease
S0158,ARM2,PFS,168.0,0,progressive disease
S0158,ARM2,TTP,168.0,0,progressive disease
S0159,ARM2,PFS,1288.0,1,censored at last adequate tumour assessment
S0159,ARM2,TTP,1288.0,1,censored at last adequate tumour assessment
S0159,ARM2,DOR,1176.0,1,censored at last adequate tumour assessment
S0159,ARM2,TTR,112.0,0,first response
S0161,ARM2,PFS,168.0,0,progressive disease
S0161,ARM2,TTP,168.0,0,progressive disease
S0162,ARM2,PFS,1232.0,1,censored at last adequate tumour assessment
S0162,ARM2,TTP,1232.0,1,censored at last adequate tumour assessment
S0162,ARM2,DOR,1120.0,1,censored at last adequate tumour assessment
S0162,ARM2,TTR,112.0,0,first response
S0164,ARM2,PFS,1232.0,1,censored at last adequate tumour assessment
S0164,ARM2,TTP,1232.0,1,censored at last adequate tumour assessment
S0165,ARM2,PFS,56.0,0,progressive disease
S0165,ARM2,TTP,56.0,0,progressive disease
S0168,ARM2,PFS,336.0,0,progressive disease
S0168,ARM2,TTP,336.0,0,progressive disease
S0169,ARM2,PFS,56.0,0,progressive disease
S0169,ARM2,TTP,56.0,0,progressive disease
S0170,ARM2,PFS,488.0,0,death
S0170,ARM2,TTP,448.0,1,censored at last adequate tumour assessment
S0170,ARM2,DOR,376.0,0,death
S0170,ARM2,TTR,112.0,0,first response
S0175,ARM2,PFS,112.0,0,progressive disease
S0175,ARM2,TTP,112.0,0,progressive disease
S0176,ARM2,PFS,1176.0,1,censored at last adequate tumour assessment
S0176,ARM2,TTP,1176.0,1,censored at last adequate tumour assessment
S0177,ARM2,PFS,152.4,0,death
S0177,ARM2,TTP,112.0,1,censored at last adequate tumour assessment
S0179,ARM2,PFS,1176.0,1,censored at last adequate tumour assessment
S0179,ARM2,TTP,1176.0,1,censored at last adequate tumour assessment
S0182,ARM2,PFS,746.8,0,death
S0182,ARM2,TTP,728.0,1,censored at last adequate tumour assessment
S0182,ARM2,DOR,634.8,0,death
S0182,ARM2,TTR,112.0,0,first response
S0184,ARM2,PFS,224.0,0,progressive disease
S0184,ARM2,TTP,224.0,0,progressive disease
S0185,ARM2,PFS,56.0,0,progressive disease
S0185,ARM2,TTP,56.0,0,progressive disease
S0188,ARM2,PFS,1176.0,1,censored at last adequate tumour assessment
S0188,ARM2,TTP,1176.0,1,censored at last adequate tumour assessment
S0188,ARM2,DOR,1064.0,1,censored at last adequate tumour assessment
S0188,ARM2,TTR,112.0,0,first response
S0189,ARM2,PFS,1120.0,1,censored at last adequate tumour assessment
S0189,ARM2,TTP,1120.0,1,censored at last adequate tumour assessment
S0189,ARM2,DOR,1008.0,1,censored at last adequate tumour assessment
S0189,ARM2,TTR,112.0,0,first response
S0193,ARM2,PFS,1120.0,1,censored at last adequate tumour assessment
S0193,ARM2,TTP,1120.0,1,censored at last adequate tumour assessment
S0193,ARM2,DOR,1008.0,1,censored at last adequate tumour assessment
S0193,ARM2,TTR,112.0,0,first response
S0196,ARM2,PFS,1120.0,1,censored at last adequate tumour assessment
S0196,ARM2,TTP,1120.0,1,censored at last adequate tumour assessment
S0197,ARM2,PFS,336.0,0,progressive disease
S0197,ARM2,TTP,336.0,0,progressive disease
S0198,ARM2,PFS,1120.0,1,censored at last adequate tumour assessment
S0198,ARM2,TTP,1120.0,1,censored at last adequate tumour assessment
S0199,ARM2,PFS,0.0,1,censored at last adequate tumour assessment
S0199,ARM2,TTP,0.0,1,censored at last adequate tumour assessment
S0200,ARM2,PFS,1064.0,1,censored at last adequate tumour assessment
S0200,ARM2,TTP,1064.0,1,censored at last adequate tumour assessment
S0202,ARM2,PFS,616.0,0,progressive disease
S0202,ARM2,TTP,616.0,0,progressive disease
S0202,ARM2,DOR,504.0,0,progressive disease
S0202,ARM2,TTR,112.0,0,first response
S0203,ARM2,PFS,56.0,0,progressive disease
S0203,ARM2,TTP,56.0,0,progressive disease
S0205,ARM2,PFS,1064.0,1,censored at last adequate tumour assessment
S0205,ARM2,TTP,1064.0,1,censored at last adequate tumour assessment
S0206,ARM2,PFS,1064.0,1,censored at last adequate tumour assessment
S0206,ARM2,TTP,1064.0,1,censored at last adequate tumour assessment
S0207,ARM2,PFS,0.0,1,censored at last adequate tumour assessment
S0207,ARM2,TTP,0.0,1,censored at last adequate tumour assessment
S0210,ARM2,PFS,1064.0,1,censored at last adequate tumour assessment
S0210,ARM2,TTP,1064.0,1,censored at last adequate tumour assessment
S0211,ARM2,PFS,280.0,0,progressive disease
S0211,ARM2,TTP,280.0,0,progressive disease
S0214,ARM2,PFS,112.0,0,progressive disease
S0214,ARM2,TTP,112.0,0,progressive disease
S0215,ARM2,PFS,1064.0,1,censored at last adequate tumour assessment
S0215,ARM2,TTP,1064.0,1,censored at last adequate tumour assessment
S0216,ARM2,PFS,1008.0,0,progressive disease
S0216,ARM2,TTP,1008.0,0,progressive disease
S0217,ARM2,PFS,168.0,0,progressive disease
S0217,ARM2,TTP,168.0,0,progressive disease
S0218,ARM2,PFS,0.0,1,censored at last adequate tumour assessment
S0218,ARM2,TTP,0.0,1,censored at last adequate tumour assessment
S0220,ARM2,PFS,504.0,0,progressive disease
S0220,ARM2,TTP,504.0,0,progressive disease
S0221,ARM2,PFS,952.0,1,censored at last adequate tumour assessment
S0221,ARM2,TTP,952.0,1,censored at last adequate tumour assessment
S0228,ARM2,PFS,274.5,0,death
S0228,ARM2,TTP,224.0,1,censored at last adequate tumour assessment
S0229,ARM2,PFS,952.0,1,censored at last adequate tumour assessment
S0229,ARM2,TTP,952.0,1,censored at last adequate tumour assessment
S0230,ARM2,PFS,952.0,1,censored at last adequate tumour assessment
S0230,ARM2,TTP,952.0,1,censored at last adequate tumour assessment
S0233,ARM2,PFS,952.0,1,censored at last adequate tumour assessment
S0233,ARM2,TTP,952.0,1,censored at last adequate tumour assessment
S0233,ARM2,DOR,840.0,1,censored at last adequate tumour assessment
S0233,ARM2,TTR,112.0,0,first response
S0236,ARM2,PFS,952.0,1,censored at last adequate tumour assessment
S0236,ARM2,TTP,952.0,1,censored at last adequate tumour assessment
S0240,ARM2,PFS,896.0,1,censored at last adequate tumour assessment
S0240,ARM2,TTP,896.0,1,censored at last adequate tumour assessment
S0241,ARM2,PFS,896.0,1,censored at last adequate tumour assessment
S0241,ARM2,TTP,896.0,1,censored at last adequate tumour assessment
S0243,ARM2,PFS,896.0,1,censored at last adequate tumour assessment
S0243,ARM2,TTP,896.0,1,censored at last adequate tumour assessment
S0243,ARM2,DOR,784.0,1,censored at last adequate tumour assessment
S0243,ARM2,TTR,112.0,0,first response
S0246,ARM2,PFS,336.0,0,progressive disease
S0246,ARM2,TTP,336.0,0,progressive disease
S0247,ARM2,PFS,56.0,0,progressive disease
S0247,ARM2,TTP,56.0,0,progressive disease
S0249,ARM2,PFS,269.0,0,death
S0249,ARM2,TTP,224.0,1,censored at last adequate tumour assessment
S0249,ARM2,DOR,157.0,0,death
S0249,ARM2,TTR,112.0,0,first response
S0253,ARM2,PFS,56.0,0,progressive disease
S0253,ARM2,TTP,56.0,0,progressive disease
S0254,ARM2,PFS,652.4,0,death
S0254,ARM2,TTP,616.0,1,censored at last adequate tumour assessment
S0255,ARM2,PFS,448.0,0,progressive disease
S0255,ARM2,TTP,448.0,0,progressive disease
S0257,ARM2,PFS,56.0,0,progressive disease
S0257,ARM2,TTP,56.0,0,progressive disease
S0258,ARM2,PFS,840.0,1,censored at last adequate tumour assessment
S0258,ARM2,TTP,840.0,1,censored at last adequate tumour assessment
S0261,ARM2,PFS,168.0,0,progressive disease
S0261,ARM2,TTP,168.0,0,progressive disease
S0262,ARM2,PFS,728.0,0,progressive disease
S0262,ARM2,TTP,728.0,0,progressive disease
S0267,ARM2,PFS,56.0,1,censored at last adequate tumour assessment
S0267,ARM2,TTP,56.0,1,censored at last adequate tumour assessment
S0268,ARM2,PFS,840.0,1,censored at last adequate tumour assessment
S0268,ARM2,TTP,840.0,1,censored at last adequate tumour assessment
S0268,ARM2,DOR,728.0,1,censored at last adequate tumour assessment
S0268,ARM2,TTR,112.0,0,first response
S0269,ARM2,PFS,280.0,0,progressive disease
S0269,ARM2,TTP,280.0,0,progressive disease
S0270,ARM2,PFS,127.5,0,death
S0270,ARM2,TTP,112.0,1,censored at last adequate tumour assessment
S0271,ARM2,PFS,112.0,0,progressive disease
S0271,ARM2,TTP,112.0,0,progressive disease
S0273,ARM2,PFS,784.0,1,censored at last adequate tumour assessment
S0273,ARM2,TTP,784.0,1,censored at last adequate tumour assessment
S0276,ARM2,PFS,560.0,0,progressive disease
S0276,ARM2,TTP,560.0,0,progressive disease
S0278,ARM2,PFS,56.0,0,progressive disease
S0278,ARM2,TTP,56.0,0,progressive disease
S0282,ARM2,PFS,606.0,0,death
S0282,ARM2,TTP,560.0,1,censored at last adequate tumour assessment
S0284,ARM2,PFS,417.0,0,death
S0284,ARM2,TTP,392.0,1,censored at last adequate tumour assessment
S0284,ARM2,DOR,305.0,0,death
S0284,ARM2,TTR,112.0,0,first response
S0285,ARM2,PFS,728.0,1,censored at last adequate tumour assessment
S0285,ARM2,TTP,728.0,1,censored at last adequate tumour assessment
S0286,ARM2,PFS,224.0,0,progressive disease
S0286,ARM2,TTP,224.0,0,progressive disease
S0286,ARM2,DOR,112.0,0,progressive disease
S0286,ARM2,TTR,112.0,0,first response
S0290,ARM2,PFS,728.0,1,censored at last adequate tumour assessment
S0290,ARM2,TTP,728.0,1,censored at last adequate tumour assessment
S0291,ARM2,PFS,280.0,0,progressive disease
S0291,ARM2,TTP,280.0,0,progressive disease
S0292,ARM2,PFS,112.0,0,progressive disease
S0292,ARM2,TTP,112.0,0,progressive disease
S0295,ARM2,PFS,56.0,0,progressive disease
S0295,ARM2,TTP,56.0,0,progressive disease
S0297,ARM2,PFS,112.0,0,progressive disease
S0297,ARM2,TTP,112.0,0,progressive disease
S0298,ARM2,PFS,728.0,1,censored at last adequate tumour assessment
S0298,ARM2,TTP,728.0,1,censored at last adequate tumour assessment
S0300,ARM2,PFS,672.0,1,censored at last adequate tumour assessment
S0300,ARM2,TTP,672.0,1,censored at last adequate tumour assessment
S0306,ARM2,PFS,56.0,1,censored at last adequate tumour assessment
S0306,ARM2,TTP,56.0,1,censored at last adequate tumour assessment
S0310,ARM2,PFS,672.0,1,censored at last adequate tumour assessment
S0310,ARM2,TTP,672.0,1,censored at last adequate tumour assessment
S0312,ARM2,PFS,672.0,1,censored at last adequate tumour assessment
S0312,ARM2,TTP,672.0,1,censored at last adequate tumour assessment
S0313,ARM2,PFS,112.0,0,progressive disease
S0313,ARM2,TTP,112.0,0,progressive disease
S0314,ARM2,PFS,672.0,1,censored at last adequate tumour assessment
S0314,ARM2,TTP,672.0,1,censored at last adequate tumour assessment
S0314,ARM2,DOR,560.0,1,censored at last adequate tumour assessment
S0314,ARM2,TTR,112.0,0,first response
S0317,ARM2,PFS,616.0,1,censored at last adequate tumour assessment
S0317,ARM2,TTP,616.0,1,censored at last adequate tumour assessment
S0317,ARM2,DOR,504.0,1,censored at last adequate tumour assessment
S0317,ARM2,TTR,112.0,0,first response
S0324,ARM2,PFS,168.0,0,progressive disease
S0324,ARM2,TTP,168.0,0,progressive disease
S0325,ARM2,PFS,616.0,1,censored at last adequate tumour assessment
S0325,ARM2,TTP,616.0,1,censored at last adequate tumour assessment
S0329,ARM2,PFS,616.0,1,censored at last adequate tumour assessment
S0329,ARM2,TTP,616.0,1,censored at last adequate tumour assessment
S0330,ARM2,PFS,0.0,1,censored at last adequate tumour assessment
S0330,ARM2,TTP,0.0,1,censored at last adequate tumour assessment
S0331,ARM2,PFS,560.0,1,censored at last adequate tumour assessment
S0331,ARM2,TTP,560.0,1,censored at last adequate tumour assessment
S0333,ARM2,PFS,164.1,0,death
S0333,ARM2,TTP,112.0,1,censored at last adequate tumour assessment
S0337,ARM2,PFS,560.0,1,censored at last adequate tumour assessment
S0337,ARM2,TTP,560.0,1,censored at last adequate tumour assessment
S0338,ARM2,PFS,224.0,0,progressive disease
S0338,ARM2,TTP,224.0,0,progressive disease
S0339,ARM2,PFS,560.0,1,censored at last adequate tumour assessment
S0339,ARM2,TTP,560.0,1,censored at last adequate tumour assessment
S0340,ARM2,PFS,560.0,1,censored at last adequate tumour assessment
S0340,ARM2,TTP,560.0,1,censored at last adequate tumour assessment
S0341,ARM2,PFS,560.0,1,censored at last adequate tumour assessment
S0341,ARM2,TTP,560.0,1,censored at last adequate tumour assessment
S0342,ARM2,PFS,560.0,1,censored at last adequate tumour assessment
S0342,ARM2,TTP,560.0,1,censored at last adequate tumour assessment
S0343,ARM2,PFS,504.0,1,censored at last adequate tumour assessment
S0343,ARM2,TTP,504.0,1,censored at last adequate tumour assessment
S0344,ARM2,PFS,422.4,0,death
S0344,ARM2,TTP,392.0,1,censored at last adequate tumour assessment
S0344,ARM2,DOR,310.4,0,death
S0344,ARM2,TTR,112.0,0,first response
S0348,ARM2,PFS,136.0,0,death
S0348,ARM2,TTP,112.0,1,censored at last adequate tumour assessment
S0351,ARM2,PFS,0.0,1,censored at last adequate tumour assessment
S0351,ARM2,TTP,0.0,1,censored at last adequate tumour assessment
S0353,ARM2,PFS,112.0,1,censored at last adequate tumour assessment
S0353,ARM2,TTP,112.0,1,censored at last adequate tumour assessment
S0357,ARM2,PFS,504.0,1,censored at last adequate tumour assessment
S0357,ARM2,TTP,504.0,1,censored at last adequate tumour assessment
S0358,ARM2,PFS,504.0,1,censored at last adequate tumour assessment
S0358,ARM2,TTP,504.0,1,censored at last adequate tumour assessment
S0358,ARM2,DOR,392.0,1,censored at last adequate tumour assessment
S0358,ARM2,TTR,112.0,0,first response
S0359,ARM2,PFS,504.0,1,censored at last adequate tumour assessment
S0359,ARM2,TTP,504.0,1,censored at last adequate tumour assessment
S0360,ARM2,PFS,504.0,1,censored at last adequate tumour assessment
S0360,ARM2,TTP,504.0,1,censored at last adequate tumour assessment
S0362,ARM2,PFS,448.0,1,censored at last adequate tumour assessment
S0362,ARM2,TTP,448.0,1,censored at last adequate tumour assessment
S0362,ARM2,DOR,336.0,1,censored at last adequate tumour assessment
S0362,ARM2,TTR,112.0,0,first response
S0363,ARM2,PFS,56.0,0,progressive disease
S0363,ARM2,TTP,56.0,0,progressive disease
S0367,ARM2,PFS,336.0,0,progressive disease
S0367,ARM2,TTP,336.0,0,progressive disease
S0371,ARM2,PFS,448.0,1,censored at last adequate tumour assessment
S0371,ARM2,TTP,448.0,1,censored at last adequate tumour assessment
S0373,ARM2,PFS,448.0,1,censored at last adequate tumour assessment
S0373,ARM2,TTP,448.0,1,censored at last adequate tumour assessment
S0375,ARM2,PFS,448.0,1,censored at last adequate tumour assessment
S0375,ARM2,TTP,448.0,1,censored at last adequate tumour assessment
S0375,ARM2,DOR,336.0,1,censored at last adequate tumour assessment
S0375,ARM2,TTR,112.0,0,first response
S0377,ARM2,PFS,448.0,1,censored at last adequate tumour assessment
S0377,ARM2,TTP,448.0,1,censored at last adequate tumour assessment
S0377,ARM2,DOR,336.0,1,censored at last adequate tumour assessment
S0377,ARM2,TTR,112.0,0,first response
S0379,ARM2,PFS,112.0,0,progressive disease
S0379,ARM2,TTP,112.0,0,progressive disease
S0382,ARM2,PFS,392.0,1,censored at last adequate tumour assessment
S0382,ARM2,TTP,392.0,1,censored at last adequate tumour assessment
S0383,ARM2,PFS,392.0,1,censored at last adequate tumour assessment
S0383,ARM2,TTP,392.0,1,censored at last adequate tumour assessment
S0384,ARM2,PFS,392.0,1,censored at last adequate tumour assessment
S0384,ARM2,TTP,392.0,1,censored at last adequate tumour assessment
S0386,ARM2,PFS,280.0,0,progressive disease
S0386,ARM2,TTP,280.0,0,progressive disease
S0389,ARM2,PFS,392.0,1,censored at last adequate tumour assessment
S0389,ARM2,TTP,392.0,1,censored at last adequate tumour assessment
S0389,ARM2,DOR,280.0,1,censored at last adequate tumour assessment
S0389,ARM2,TTR,112.0,0,first response
S0391,ARM2,PFS,392.0,1,censored at last adequate tumour assessment
S0391,ARM2,TTP,392.0,1,censored at last adequate tumour assessment
S0394,ARM2,PFS,56.0,0,progressive disease
S0394,ARM2,TTP,56.0,0,progressive disease
S0395,ARM2,PFS,168.0,0,progressive disease
S0395,ARM2,TTP,168.0,0,progressive disease
S0396,ARM2,PFS,336.0,1,censored at last adequate tumour assessment
S0396,ARM2,TTP,336.0,1,censored at last adequate tumour assessment
S0398,ARM2,PFS,0.0,1,censored at last adequate tumour assessment
S0398,ARM2,TTP,0.0,1,censored at last adequate tumour assessment
S0399,ARM2,PFS,280.0,0,progressive disease
S0399,ARM2,TTP,280.0,0,progressive disease
