STUDYID,USUBJID,ARMCD,AGE,SEX,RACE,ETHNIC,RFSTDTC_DAY,ENROLLMENT_DAY,TRTSDY,TRTEDY,EOTREAS,N_CYCLES,N_REDUCTIONS,N_HOLDS,RDI,ANY_SAE,ANY_GR3,DTHFL,DTHDY
CABOCOL-01,S0001,ARM2,69.48,female,more_than_one_race,not_hispanic_or_latino,1,238.2,1,54,adverse event (all agents discontinued),2,0,0,0.981,N,N,N,
CABOCOL-01,S0002,ARM1,54.91,female,white,not_hispanic_or_latino,1,321.0,1,85,disease progression,4,0,0,1.0,N,N,N,
CABOCOL-01,S0003,ARM2,68.58,female,black_or_african_american,not_hispanic_or_latino,1,437.1,1,313,death,12,0,0,1.0,N,N,Y,313
CABOCOL-01,S0004,ARM1,64.35,female,white,not_hispanic_or_latino,1,464.3,1,27,death,1,0,0,1.0,N,N,Y,27
CABOCOL-01,S0005,ARM2,37.43,female,white,not_hispanic_or_latino,1,514.0,1,47,adverse event (all agents discontinued),2,0,1,0.936,Y,Y,N,
CABOCOL-01,S0006,ARM2,55.21,female,white,not_hispanic_or_latino,1,555.4,1,85,disease progression,4,0,0,1.0,N,N,N,
CABOCOL-01,S0007,ARM2,67.0,female,white,not_hispanic_or_latino,1,572.6,1,169,disease progression,7,0,1,0.988,Y,Y,N,
CABOCOL-01,S0008,ARM1,67.28,female,black_or_african_american,not_hispanic_or_latino,1,574.3,1,85,disease progression,4,0,0,1.0,N,N,N,
CABOCOL-01,S0009,ARM1,58.49,female,white,not_hispanic_or_latino,1,590.7,1,673,disease progression,25,0,0,1.0,N,N,N,
CABOCOL-01,S0010,ARM1,78.42,female,black_or_african_american,not_hispanic_or_latino,1,664.9,1,162,adverse event (all agents discontinued),6,0,0,0.994,N,N,N,
CABOCOL-01,S0011,ARM2,43.01,female,white,not_hispanic_or_latino,1,680.0,1,85,disease progression,4,0,0,1.0,N,N,N,
CABOCOL-01,S0012,ARM1,60.63,female,white,not_hispanic_or_latino,1,853.5,1,169,disease progression,7,0,0,1.0,N,N,N,
CABOCOL-01,S0013,ARM1,56.0,female,white,not_hispanic_or_latino,1,870.8,1,133,adverse event (all agents discontinued),5,0,0,0.992,N,N,N,
CABOCOL-01,S0014,ARM1,55.0,female,white,not_hispanic_or_latino,1,980.0,1,169,disease progression,7,0,0,1.0,N,N,N,
CABOCOL-01,S0015,ARM1,64.03,female,white,not_hispanic_or_latino,1,1011.9,1,85,disease progression,4,0,0,1.0,Y,Y,N,
CABOCOL-01,S0016,ARM2,72.91,female,white,not_hispanic_or_latino,1,1085.6,1,1,adverse event (all agents discontinued),1,0,0,0.0,N,N,N,
CABOCOL-01,S0017,ARM1,68.4,female,white,not_hispanic_or_latino,1,1147.5,1,169,disease progression,7,0,0,1.0,N,N,N,
CABOCOL-01,S0018,ARM1,40.58,female,asian,not_hispanic_or_latino,1,1191.6,1,153,adverse event (all agents discontinued),6,0,0,0.993,N,N,N,
CABOCOL-01,S0019,ARM2,52.86,female,white,not_hispanic_or_latino,1,1279.4,1,85,disease progression,4,0,0,1.0,N,N,N,
CABOCOL-01,S0020,ARM2,57.24,female,white,not_hispanic_or_latino,1,1302.8,1,85,disease progression,4,0,0,1.0,N,N,N,
CABOCOL-01,S0021,ARM1,56.05,female,white,not_hispanic_or_latino,1,1335.4,1,120,"withdrawal (subject, loss to follow-up or physician decision)",5,0,0,1.0,N,N,N,
CABOCOL-01,S0022,ARM2,45.74,female,white,not_hispanic_or_latino,1,1400.4,1,337,disease progression,13,0,0,1.0,N,N,N,
CABOCOL-01,S0023,ARM2,55.97,female,white,not_hispanic_or_latino,1,1482.2,1,169,disease progression,7,0,0,1.0,N,N,N,
CABOCOL-01,S0024,ARM2,69.3,female,american_indian_or_alaska_native,not_hispanic_or_latino,1,1542.3,1,337,disease progression,13,0,0,1.0,N,N,N,
CABOCOL-01,S0025,ARM2,60.9,female,white,not_hispanic_or_latino,1,1674.4,1,143,adverse event (registry discontinuation rate),6,0,0,1.0,N,N,N,
CABOCOL-01,S0026,ARM1,49.33,female,native_hawaiian_or_other_pacific_islander,not_hispanic_or_latino,1,1739.9,1,337,disease progression,13,0,0,1.0,N,N,N,
CABOCOL-01,S0027,ARM2,54.5,female,black_or_african_american,not_hispanic_or_latino,1,1748.2,1,234,adverse event (all agents discontinued),9,0,0,0.996,N,N,N,
CABOCOL-01,S0028,ARM1,55.52,female,white,not_hispanic_or_latino,1,1760.6,1,85,disease progression,4,0,0,1.0,N,N,N,
CABOCOL-01,S0029,ARM1,56.95,female,white,not_hispanic_or_latino,1,1783.8,1,421,disease progression,16,0,0,1.0,N,N,N,
CABOCOL-01,S0030,ARM1,40.43,female,american_indian_or_alaska_native,not_hispanic_or_latino,1,1816.8,1,85,disease progression,4,0,0,1.0,N,N,N,
CABOCOL-01,S0031,ARM2,57.58,female,white,not_hispanic_or_latino,1,1825.0,1,253,disease progression,10,0,0,1.0,N,N,N,
CABOCOL-01,S0032,ARM2,61.24,female,white,not_hispanic_or_latino,1,1834.2,1,6,adverse event (all agents discontinued),1,0,0,0.833,N,N,N,
CABOCOL-01,S0033,ARM1,60.4,female,white,not_hispanic_or_latino,1,1899.7,1,46,adverse event (all agents discontinued),2,0,0,0.978,N,N,N,
CABOCOL-01,S0034,ARM2,51.6,female,white,not_hispanic_or_latino,1,1937.8,1,69,adverse event (all agents discontinued),3,0,0,0.986,N,N,N,
CABOCOL-01,S0035,ARM1,43.18,female,white,not_hispanic_or_latino,1,1980.5,1,253,disease progression,10,0,0,1.0,N,N,N,
CABOCOL-01,S0036,ARM2,49.84,female,white,not_hispanic_or_latino,1,1984.4,1,337,disease progression,13,0,0,1.0,N,N,N,
CABOCOL-01,S0037,ARM2,65.48,female,white,not_hispanic_or_latino,1,2067.4,1,253,disease progression,10,0,0,1.0,N,N,N,
CABOCOL-01,S0038,ARM2,69.05,female,black_or_african_american,not_hispanic_or_latino,1,2068.8,1,21,adverse event (all agents discontinued),1,0,0,0.952,N,N,N,
CABOCOL-01,S0039,ARM1,63.14,female,black_or_african_american,hispanic_or_latino,1,2125.9,1,153,adverse event (registry discontinuation rate),6,0,0,1.0,N,N,N,
CABOCOL-01,S0040,ARM1,35.81,female,unknown_or_not_reported,not_hispanic_or_latino,1,2153.4,1,589,disease progression,22,0,0,1.0,N,N,N,
CABOCOL-01,S0041,ARM1,45.12,female,american_indian_or_alaska_native,not_hispanic_or_latino,1,2156.2,1,85,disease progression,4,0,0,1.0,N,N,N,
CABOCOL-01,S0042,ARM1,51.17,female,white,not_hispanic_or_latino,1,2166.8,1,169,disease progression,7,0,0,1.0,N,N,N,
CABOCOL-01,S0043,ARM2,53.49,female,white,not_hispanic_or_latino,1,2203.6,1,6,adverse event (all agents discontinued),1,0,0,0.833,N,N,Y,694
CABOCOL-01,S0044,ARM2,53.59,female,white,not_hispanic_or_latino,1,2369.0,1,169,disease progression,7,0,0,1.0,N,N,N,
CABOCOL-01,S0045,ARM1,46.97,female,white,not_hispanic_or_latino,1,2423.8,1,85,disease progression,4,0,0,1.0,N,N,N,
CABOCOL-01,S0046,ARM1,48.53,female,white,not_hispanic_or_latino,1,2435.7,1,505,disease progression,19,0,0,1.0,N,N,N,
CABOCOL-01,S0047,ARM2,44.67,female,asian,not_hispanic_or_latino,1,2553.1,1,505,disease progression,19,0,0,1.0,N,N,N,
CABOCOL-01,S0048,ARM1,42.26,female,white,not_hispanic_or_latino,1,2621.2,1,169,disease progression,7,0,0,1.0,N,N,N,
CABOCOL-01,S0049,ARM1,60.62,female,white,not_hispanic_or_latino,1,2646.3,1,169,disease progression,7,0,0,1.0,N,N,N,
CABOCOL-01,S0050,ARM2,32.13,female,white,not_hispanic_or_latino,1,2710.6,1,253,disease progression,10,0,2,0.984,Y,Y,N,
CABOCOL-01,S0051,ARM2,62.72,female,white,not_hispanic_or_latino,1,2813.5,1,337,disease progression,13,0,0,1.0,N,N,N,
CABOCOL-01,S0052,ARM2,36.67,female,white,not_hispanic_or_latino,1,2914.4,1,85,disease progression,4,0,0,1.0,N,N,N,
CABOCOL-01,S0053,ARM1,52.18,female,white,not_hispanic_or_latino,1,2930.0,1,85,disease progression,4,0,0,1.0,N,N,N,
CABOCOL-01,S0054,ARM2,53.14,female,white,not_hispanic_or_latino,1,3111.0,1,120,adverse event (all agents discontinued),5,0,1,0.975,Y,Y,N,
CABOCOL-01,S0055,ARM1,55.56,female,white,not_hispanic_or_latino,1,3212.9,1,124,adverse event (all agents discontinued),5,0,0,0.992,N,N,N,
CABOCOL-01,S0056,ARM2,25.2,female,asian,not_hispanic_or_latino,1,3217.7,1,169,disease progression,7,0,0,1.0,N,N,N,
CABOCOL-01,S0057,ARM1,79.36,female,asian,not_hispanic_or_latino,1,3229.3,1,85,disease progression,4,0,0,1.0,N,N,N,
