USUBJID,ARMCD,PARAMCD,PARAM,AVAL_DAYS,CNSR,EVNTDESC
S0001,ARM2,PFS,Progression-free survival (detected at assessment),54,1,censored at last tumour assessment
S0001,ARM2,OS,Overall survival (death in the simulated horizon),80,1,censored at last simulated contact
S0002,ARM1,PFS,Progression-free survival (detected at assessment),85,0,progression detected at scheduled tumour assessment
S0002,ARM1,OS,Overall survival (death in the simulated horizon),113,1,censored at last simulated contact
S0003,ARM2,PFS,Progression-free survival (detected at assessment),253,1,censored at last tumour assessment
S0003,ARM2,OS,Overall survival (death in the simulated horizon),313,0,death
S0004,ARM1,PFS,Progression-free survival (detected at assessment),27,1,censored at last tumour assessment
S0004,ARM1,OS,Overall survival (death in the simulated horizon),27,0,death
S0005,ARM2,PFS,Progression-free survival (detected at assessment),47,1,censored at last tumour assessment
S0005,ARM2,OS,Overall survival (death in the simulated horizon),75,1,censored at last simulated contact
S0006,ARM2,PFS,Progression-free survival (detected at assessment),85,0,progression detected at scheduled tumour assessment
S0006,ARM2,OS,Overall survival (death in the simulated horizon),106,1,censored at last simulated contact
S0007,ARM2,PFS,Progression-free survival (detected at assessment),169,0,progression detected at scheduled tumour assessment
S0007,ARM2,OS,Overall survival (death in the simulated horizon),192,1,censored at last simulated contact
S0008,ARM1,PFS,Progression-free survival (detected at assessment),85,0,progression detected at scheduled tumour assessment
S0008,ARM1,OS,Overall survival (death in the simulated horizon),102,1,censored at last simulated contact
S0009,ARM1,PFS,Progression-free survival (detected at assessment),673,0,progression detected at scheduled tumour assessment
S0009,ARM1,OS,Overall survival (death in the simulated horizon),673,1,censored at last simulated contact
S0010,ARM1,PFS,Progression-free survival (detected at assessment),85,1,censored at last tumour assessment
S0010,ARM1,OS,Overall survival (death in the simulated horizon),162,1,censored at last simulated contact
S0011,ARM2,PFS,Progression-free survival (detected at assessment),85,0,progression detected at scheduled tumour assessment
S0011,ARM2,OS,Overall survival (death in the simulated horizon),115,1,censored at last simulated contact
S0012,ARM1,PFS,Progression-free survival (detected at assessment),169,0,progression detected at scheduled tumour assessment
S0012,ARM1,OS,Overall survival (death in the simulated horizon),184,1,censored at last simulated contact
S0013,ARM1,PFS,Progression-free survival (detected at assessment),85,1,censored at last tumour assessment
S0013,ARM1,OS,Overall survival (death in the simulated horizon),160,1,censored at last simulated contact
S0014,ARM1,PFS,Progression-free survival (detected at assessment),169,0,progression detected at scheduled tumour assessment
S0014,ARM1,OS,Overall survival (death in the simulated horizon),180,1,censored at last simulated contact
S0015,ARM1,PFS,Progression-free survival (detected at assessment),85,0,progression detected at scheduled tumour assessment
S0015,ARM1,OS,Overall survival (death in the simulated horizon),98,1,censored at last simulated contact
S0016,ARM2,PFS,Progression-free survival (detected at assessment),1,1,censored at last tumour assessment
S0016,ARM2,OS,Overall survival (death in the simulated horizon),22,1,censored at last simulated contact
S0017,ARM1,PFS,Progression-free survival (detected at assessment),169,0,progression detected at scheduled tumour assessment
S0017,ARM1,OS,Overall survival (death in the simulated horizon),193,1,censored at last simulated contact
S0018,ARM1,PFS,Progression-free survival (detected at assessment),85,1,censored at last tumour assessment
S0018,ARM1,OS,Overall survival (death in the simulated horizon),182,1,censored at last simulated contact
S0019,ARM2,PFS,Progression-free survival (detected at assessment),85,0,progression detected at scheduled tumour assessment
S0019,ARM2,OS,Overall survival (death in the simulated horizon),112,1,censored at last simulated contact
S0020,ARM2,PFS,Progression-free survival (detected at assessment),85,0,progression detected at scheduled tumour assessment
S0020,ARM2,OS,Overall survival (death in the simulated horizon),111,1,censored at last simulated contact
S0021,ARM1,PFS,Progression-free survival (detected at assessment),85,1,censored at last tumour assessment
S0021,ARM1,OS,Overall survival (death in the simulated horizon),140,1,censored at last simulated contact
S0022,ARM2,PFS,Progression-free survival (detected at assessment),337,0,progression detected at scheduled tumour assessment
S0022,ARM2,OS,Overall survival (death in the simulated horizon),365,1,censored at last simulated contact
S0023,ARM2,PFS,Progression-free survival (detected at assessment),169,0,progression detected at scheduled tumour assessment
S0023,ARM2,OS,Overall survival (death in the simulated horizon),193,1,censored at last simulated contact
S0024,ARM2,PFS,Progression-free survival (detected at assessment),337,0,progression detected at scheduled tumour assessment
S0024,ARM2,OS,Overall survival (death in the simulated horizon),354,1,censored at last simulated contact
S0025,ARM2,PFS,Progression-free survival (detected at assessment),85,1,censored at last tumour assessment
S0025,ARM2,OS,Overall survival (death in the simulated horizon),171,1,censored at last simulated contact
S0026,ARM1,PFS,Progression-free survival (detected at assessment),337,0,progression detected at scheduled tumour assessment
S0026,ARM1,OS,Overall survival (death in the simulated horizon),351,1,censored at last simulated contact
S0027,ARM2,PFS,Progression-free survival (detected at assessment),169,1,censored at last tumour assessment
S0027,ARM2,OS,Overall survival (death in the simulated horizon),234,1,censored at last simulated contact
S0028,ARM1,PFS,Progression-free survival (detected at assessment),85,0,progression detected at scheduled tumour assessment
S0028,ARM1,OS,Overall survival (death in the simulated horizon),109,1,censored at last simulated contact
S0029,ARM1,PFS,Progression-free survival (detected at assessment),421,0,progression detected at scheduled tumour assessment
S0029,ARM1,OS,Overall survival (death in the simulated horizon),446,1,censored at last simulated contact
S0030,ARM1,PFS,Progression-free survival (detected at assessment),85,0,progression detected at scheduled tumour assessment
S0030,ARM1,OS,Overall survival (death in the simulated horizon),102,1,censored at last simulated contact
S0031,ARM2,PFS,Progression-free survival (detected at assessment),253,0,progression detected at scheduled tumour assessment
S0031,ARM2,OS,Overall survival (death in the simulated horizon),281,1,censored at last simulated contact
S0032,ARM2,PFS,Progression-free survival (detected at assessment),6,1,censored at last tumour assessment
S0032,ARM2,OS,Overall survival (death in the simulated horizon),17,1,censored at last simulated contact
S0033,ARM1,PFS,Progression-free survival (detected at assessment),46,1,censored at last tumour assessment
S0033,ARM1,OS,Overall survival (death in the simulated horizon),64,1,censored at last simulated contact
S0034,ARM2,PFS,Progression-free survival (detected at assessment),69,1,censored at last tumour assessment
S0034,ARM2,OS,Overall survival (death in the simulated horizon),92,1,censored at last simulated contact
S0035,ARM1,PFS,Progression-free survival (detected at assessment),253,0,progression detected at scheduled tumour assessment
S0035,ARM1,OS,Overall survival (death in the simulated horizon),257,1,censored at last simulated contact
S0036,ARM2,PFS,Progression-free survival (detected at assessment),337,0,progression detected at scheduled tumour assessment
S0036,ARM2,OS,Overall survival (death in the simulated horizon),337,1,censored at last simulated contact
S0037,ARM2,PFS,Progression-free survival (detected at assessment),253,0,progression detected at scheduled tumour assessment
S0037,ARM2,OS,Overall survival (death in the simulated horizon),265,1,censored at last simulated contact
S0038,ARM2,PFS,Progression-free survival (detected at assessment),21,1,censored at last tumour assessment
S0038,ARM2,OS,Overall survival (death in the simulated horizon),35,1,censored at last simulated contact
S0039,ARM1,PFS,Progression-free survival (detected at assessment),85,1,censored at last tumour assessment
S0039,ARM1,OS,Overall survival (death in the simulated horizon),182,1,censored at last simulated contact
S0040,ARM1,PFS,Progression-free survival (detected at assessment),589,0,progression detected at scheduled tumour assessment
S0040,ARM1,OS,Overall survival (death in the simulated horizon),606,1,censored at last simulated contact
S0041,ARM1,PFS,Progression-free survival (detected at assessment),85,0,progression detected at scheduled tumour assessment
S0041,ARM1,OS,Overall survival (death in the simulated horizon),107,1,censored at last simulated contact
S0042,ARM1,PFS,Progression-free survival (detected at assessment),169,0,progression detected at scheduled tumour assessment
S0042,ARM1,OS,Overall survival (death in the simulated horizon),188,1,censored at last simulated contact
S0043,ARM2,PFS,Progression-free survival (detected at assessment),6,1,censored at last tumour assessment
S0043,ARM2,OS,Overall survival (death in the simulated horizon),694,0,death
S0044,ARM2,PFS,Progression-free survival (detected at assessment),169,0,progression detected at scheduled tumour assessment
S0044,ARM2,OS,Overall survival (death in the simulated horizon),169,1,censored at last simulated contact
S0045,ARM1,PFS,Progression-free survival (detected at assessment),85,0,progression detected at scheduled tumour assessment
S0045,ARM1,OS,Overall survival (death in the simulated horizon),85,1,censored at last simulated contact
S0046,ARM1,PFS,Progression-free survival (detected at assessment),505,0,progression detected at scheduled tumour assessment
S0046,ARM1,OS,Overall survival (death in the simulated horizon),507,1,censored at last simulated contact
S0047,ARM2,PFS,Progression-free survival (detected at assessment),505,0,progression detected at scheduled tumour assessment
S0047,ARM2,OS,Overall survival (death in the simulated horizon),505,1,censored at last simulated contact
S0048,ARM1,PFS,Progression-free survival (detected at assessment),169,0,progression detected at scheduled tumour assessment
S0048,ARM1,OS,Overall survival (death in the simulated horizon),198,1,censored at last simulated contact
S0049,ARM1,PFS,Progression-free survival (detected at assessment),169,0,progression detected at scheduled tumour assessment
S0049,ARM1,OS,Overall survival (death in the simulated horizon),173,1,censored at last simulated contact
S0050,ARM2,PFS,Progression-free survival (detected at assessment),253,0,progression detected at scheduled tumour assessment
S0050,ARM2,OS,Overall survival (death in the simulated horizon),277,1,censored at last simulated contact
S0051,ARM2,PFS,Progression-free survival (detected at assessment),337,0,progression detected at scheduled tumour assessment
S0051,ARM2,OS,Overall survival (death in the simulated horizon),365,1,censored at last simulated contact
S0052,ARM2,PFS,Progression-free survival (detected at assessment),85,0,progression detected at scheduled tumour assessment
S0052,ARM2,OS,Overall survival (death in the simulated horizon),113,1,censored at last simulated contact
S0053,ARM1,PFS,Progression-free survival (detected at assessment),85,0,progression detected at scheduled tumour assessment
S0053,ARM1,OS,Overall survival (death in the simulated horizon),90,1,censored at last simulated contact
S0054,ARM2,PFS,Progression-free survival (detected at assessment),85,1,censored at last tumour assessment
S0054,ARM2,OS,Overall survival (death in the simulated horizon),149,1,censored at last simulated contact
S0055,ARM1,PFS,Progression-free survival (detected at assessment),85,1,censored at last tumour assessment
S0055,ARM1,OS,Overall survival (death in the simulated horizon),127,1,censored at last simulated contact
S0056,ARM2,PFS,Progression-free survival (detected at assessment),169,0,progression detected at scheduled tumour assessment
S0056,ARM2,OS,Overall survival (death in the simulated horizon),190,1,censored at last simulated contact
S0057,ARM1,PFS,Progression-free survival (detected at assessment),85,0,progression detected at scheduled tumour assessment
S0057,ARM1,OS,Overall survival (death in the simulated horizon),111,1,censored at last simulated contact
