USUBJID,TRLNKID,TRTESTCD,TRORRES,TRORRESU,TRDY,VISIT
S0003,T01,LDIAM,10.5,mm,0,BASELINE
S0003,,SUMDIAM,10.5,mm,0,BASELINE
S0003,T01,LDIAM,5.2,mm,28,TA1
S0003,,SUMDIAM,5.2,mm,28,TA1
S0003,T01,LDIAM,0.0,mm,56,TA2
S0003,,SUMDIAM,0.0,mm,56,TA2
S0003,T01,LDIAM,0.0,mm,84,TA3
S0003,,SUMDIAM,0.0,mm,84,TA3
S0003,T01,LDIAM,0.0,mm,112,TA4
S0003,,SUMDIAM,0.0,mm,112,TA4
S0003,T01,LDIAM,0.0,mm,140,TA5
S0003,,SUMDIAM,0.0,mm,140,TA5
S0003,T01,LDIAM,0.0,mm,168,TA6
S0003,,SUMDIAM,0.0,mm,168,TA6
S0003,T01,LDIAM,0.0,mm,196,TA7
S0003,,SUMDIAM,0.0,mm,196,TA7
S0003,T01,LDIAM,0.0,mm,224,TA8
S0003,,SUMDIAM,0.0,mm,224,TA8
S0003,T01,LDIAM,1.0,mm,252,TA9
S0003,,SUMDIAM,1.0,mm,252,TA9
S0003,T01,LDIAM,1.0,mm,280,TA10
S0003,,SUMDIAM,1.0,mm,280,TA10
S0003,T01,LDIAM,1.0,mm,308,TA11
S0003,,SUMDIAM,1.0,mm,308,TA11
S0003,T01,LDIAM,1.0,mm,336,TA12
S0003,,SUMDIAM,1.0,mm,336,TA12
S0003,T01,LDIAM,1.0,mm,364,TA13
S0003,,SUMDIAM,1.0,mm,364,TA13
S0003,T01,LDIAM,1.0,mm,392,TA14
S0003,,SUMDIAM,1.0,mm,392,TA14
S0003,T01,LDIAM,1.0,mm,420,TA15
S0003,,SUMDIAM,1.0,mm,420,TA15
S0003,T01,LDIAM,1.0,mm,448,TA16
S0003,,SUMDIAM,1.0,mm,448,TA16
S0003,T01,LDIAM,1.0,mm,476,TA17
S0003,,SUMDIAM,1.0,mm,476,TA17
S0003,T01,LDIAM,1.0,mm,504,TA18
S0003,,SUMDIAM,1.0,mm,504,TA18
S0005,T01,LDIAM,17.4,mm,0,BASELINE
S0005,T02,LDIAM,51.8,mm,0,BASELINE
S0005,,SUMDIAM,69.2,mm,0,BASELINE
S0005,T01,LDIAM,8.7,mm,28,TA1
S0005,T02,LDIAM,25.9,mm,28,TA1
S0005,,SUMDIAM,34.6,mm,28,TA1
S0006,T01,LDIAM,15.7,mm,0,BASELINE
S0006,T02,LDIAM,40.7,mm,0,BASELINE
S0006,T03,LDIAM,35.3,mm,0,BASELINE
S0006,,SUMDIAM,91.7,mm,0,BASELINE
S0006,T01,LDIAM,10.9,mm,28,TA1
S0006,T02,LDIAM,28.3,mm,28,TA1
S0006,T03,LDIAM,24.5,mm,28,TA1
S0006,,SUMDIAM,63.7,mm,28,TA1
S0006,T01,LDIAM,6.1,mm,56,TA2
S0006,T02,LDIAM,15.8,mm,56,TA2
S0006,T03,LDIAM,13.7,mm,56,TA2
S0006,,SUMDIAM,35.7,mm,56,TA2
S0006,T01,LDIAM,6.1,mm,84,TA3
S0006,T02,LDIAM,15.8,mm,84,TA3
S0006,T03,LDIAM,13.7,mm,84,TA3
S0006,,SUMDIAM,35.7,mm,84,TA3
S0006,T01,LDIAM,6.1,mm,112,TA4
S0006,T02,LDIAM,15.8,mm,112,TA4
S0006,T03,LDIAM,13.7,mm,112,TA4
S0006,,SUMDIAM,35.7,mm,112,TA4
S0006,T01,LDIAM,6.1,mm,140,TA5
S0006,T02,LDIAM,15.8,mm,140,TA5
S0006,T03,LDIAM,13.7,mm,140,TA5
S0006,,SUMDIAM,35.7,mm,140,TA5
S0006,T01,LDIAM,6.1,mm,168,TA6
S0006,T02,LDIAM,15.8,mm,168,TA6
S0006,T03,LDIAM,13.7,mm,168,TA6
S0006,,SUMDIAM,35.7,mm,168,TA6
S0006,T01,LDIAM,6.1,mm,196,TA7
S0006,T02,LDIAM,15.8,mm,196,TA7
S0006,T03,LDIAM,13.7,mm,196,TA7
S0006,,SUMDIAM,35.7,mm,196,TA7
S0006,T01,LDIAM,6.1,mm,224,TA8
S0006,T02,LDIAM,15.8,mm,224,TA8
S0006,T03,LDIAM,13.7,mm,224,TA8
S0006,,SUMDIAM,35.7,mm,224,TA8
S0006,T01,LDIAM,6.1,mm,252,TA9
S0006,T02,LDIAM,15.8,mm,252,TA9
S0006,T03,LDIAM,13.7,mm,252,TA9
S0006,,SUMDIAM,35.7,mm,252,TA9
S0006,T01,LDIAM,6.1,mm,280,TA10
S0006,T02,LDIAM,15.8,mm,280,TA10
S0006,T03,LDIAM,13.7,mm,280,TA10
S0006,,SUMDIAM,35.7,mm,280,TA10
S0006,T01,LDIAM,6.1,mm,308,TA11
S0006,T02,LDIAM,15.8,mm,308,TA11
S0006,T03,LDIAM,13.7,mm,308,TA11
S0006,,SUMDIAM,35.7,mm,308,TA11
S0006,T01,LDIAM,6.1,mm,336,TA12
S0006,T02,LDIAM,15.8,mm,336,TA12
S0006,T03,LDIAM,13.7,mm,336,TA12
S0006,,SUMDIAM,35.7,mm,336,TA12
S0006,T01,LDIAM,6.1,mm,364,TA13
S0006,T02,LDIAM,15.8,mm,364,TA13
S0006,T03,LDIAM,13.7,mm,364,TA13
S0006,,SUMDIAM,35.7,mm,364,TA13
S0006,T01,LDIAM,6.1,mm,392,TA14
S0006,T02,LDIAM,15.8,mm,392,TA14
S0006,T03,LDIAM,13.7,mm,392,TA14
S0006,,SUMDIAM,35.7,mm,392,TA14
S0006,T01,LDIAM,6.1,mm,420,TA15
S0006,T02,LDIAM,15.8,mm,420,TA15
S0006,T03,LDIAM,13.7,mm,420,TA15
S0006,,SUMDIAM,35.7,mm,420,TA15
S0006,T01,LDIAM,6.1,mm,448,TA16
S0006,T02,LDIAM,15.8,mm,448,TA16
S0006,T03,LDIAM,13.7,mm,448,TA16
S0006,,SUMDIAM,35.7,mm,448,TA16
S0006,T01,LDIAM,6.1,mm,476,TA17
S0006,T02,LDIAM,15.8,mm,476,TA17
S0006,T03,LDIAM,13.7,mm,476,TA17
S0006,,SUMDIAM,35.7,mm,476,TA17
S0006,T01,LDIAM,6.1,mm,504,TA18
S0006,T02,LDIAM,15.8,mm,504,TA18
S0006,T03,LDIAM,13.7,mm,504,TA18
S0006,,SUMDIAM,35.7,mm,504,TA18
S0006,T01,LDIAM,6.1,mm,532,TA19
S0006,T02,LDIAM,15.8,mm,532,TA19
S0006,T03,LDIAM,13.7,mm,532,TA19
S0006,,SUMDIAM,35.7,mm,532,TA19
S0006,T01,LDIAM,6.1,mm,560,TA20
S0006,T02,LDIAM,15.8,mm,560,TA20
S0006,T03,LDIAM,13.7,mm,560,TA20
S0006,,SUMDIAM,35.7,mm,560,TA20
S0006,T01,LDIAM,6.1,mm,588,TA21
S0006,T02,LDIAM,15.8,mm,588,TA21
S0006,T03,LDIAM,13.7,mm,588,TA21
S0006,,SUMDIAM,35.7,mm,588,TA21
S0006,T01,LDIAM,6.1,mm,616,TA22
S0006,T02,LDIAM,15.8,mm,616,TA22
S0006,T03,LDIAM,13.7,mm,616,TA22
S0006,,SUMDIAM,35.7,mm,616,TA22
S0006,T01,LDIAM,6.1,mm,644,TA23
S0006,T02,LDIAM,15.8,mm,644,TA23
S0006,T03,LDIAM,13.7,mm,644,TA23
S0006,,SUMDIAM,35.7,mm,644,TA23
S0006,T01,LDIAM,6.1,mm,672,TA24
S0006,T02,LDIAM,15.8,mm,672,TA24
S0006,T03,LDIAM,13.7,mm,672,TA24
S0006,,SUMDIAM,35.7,mm,672,TA24
S0006,T01,LDIAM,6.1,mm,700,TA25
S0006,T02,LDIAM,15.8,mm,700,TA25
S0006,T03,LDIAM,13.7,mm,700,TA25
S0006,,SUMDIAM,35.7,mm,700,TA25
S0006,T01,LDIAM,8.4,mm,728,TA26
S0006,T02,LDIAM,21.8,mm,728,TA26
S0006,T03,LDIAM,18.9,mm,728,TA26
S0006,,SUMDIAM,49.2,mm,728,TA26
S0007,T01,LDIAM,54.9,mm,0,BASELINE
S0007,,SUMDIAM,54.9,mm,0,BASELINE
S0007,T01,LDIAM,32.5,mm,28,TA1
S0007,,SUMDIAM,32.5,mm,28,TA1
S0007,T01,LDIAM,10.2,mm,56,TA2
S0007,,SUMDIAM,10.2,mm,56,TA2
S0007,T01,LDIAM,10.2,mm,84,TA3
S0007,,SUMDIAM,10.2,mm,84,TA3
S0007,T01,LDIAM,10.2,mm,112,TA4
S0007,,SUMDIAM,10.2,mm,112,TA4
S0007,T01,LDIAM,10.2,mm,140,TA5
S0007,,SUMDIAM,10.2,mm,140,TA5
S0007,T01,LDIAM,10.2,mm,168,TA6
S0007,,SUMDIAM,10.2,mm,168,TA6
S0007,T01,LDIAM,10.2,mm,196,TA7
S0007,,SUMDIAM,10.2,mm,196,TA7
S0007,T01,LDIAM,10.2,mm,224,TA8
S0007,,SUMDIAM,10.2,mm,224,TA8
S0007,T01,LDIAM,10.2,mm,252,TA9
S0007,,SUMDIAM,10.2,mm,252,TA9
S0007,T01,LDIAM,10.2,mm,280,TA10
S0007,,SUMDIAM,10.2,mm,280,TA10
S0007,T01,LDIAM,10.2,mm,308,TA11
S0007,,SUMDIAM,10.2,mm,308,TA11
S0007,T01,LDIAM,10.2,mm,336,TA12
S0007,,SUMDIAM,10.2,mm,336,TA12
S0007,T01,LDIAM,10.2,mm,364,TA13
S0007,,SUMDIAM,10.2,mm,364,TA13
S0007,T01,LDIAM,10.2,mm,392,TA14
S0007,,SUMDIAM,10.2,mm,392,TA14
S0007,T01,LDIAM,10.2,mm,420,TA15
S0007,,SUMDIAM,10.2,mm,420,TA15
S0007,T01,LDIAM,10.2,mm,448,TA16
S0007,,SUMDIAM,10.2,mm,448,TA16
S0007,T01,LDIAM,10.2,mm,476,TA17
S0007,,SUMDIAM,10.2,mm,476,TA17
S0007,T01,LDIAM,10.2,mm,504,TA18
S0007,,SUMDIAM,10.2,mm,504,TA18
S0007,T01,LDIAM,10.2,mm,532,TA19
S0007,,SUMDIAM,10.2,mm,532,TA19
S0007,T01,LDIAM,10.2,mm,560,TA20
S0007,,SUMDIAM,10.2,mm,560,TA20
S0007,T01,LDIAM,10.2,mm,588,TA21
S0007,,SUMDIAM,10.2,mm,588,TA21
S0007,T01,LDIAM,10.2,mm,616,TA22
S0007,,SUMDIAM,10.2,mm,616,TA22
S0007,T01,LDIAM,15.5,mm,644,TA23
S0007,,SUMDIAM,15.5,mm,644,TA23
S0007,T01,LDIAM,15.5,mm,672,TA24
S0007,,SUMDIAM,15.5,mm,672,TA24
S0007,T01,LDIAM,15.5,mm,700,TA25
S0007,,SUMDIAM,15.5,mm,700,TA25
S0007,T01,LDIAM,15.5,mm,728,TA26
S0007,,SUMDIAM,15.5,mm,728,TA26
S0007,T01,LDIAM,15.5,mm,756,TA27
S0007,,SUMDIAM,15.5,mm,756,TA27
S0007,T01,LDIAM,15.5,mm,784,TA28
S0007,,SUMDIAM,15.5,mm,784,TA28
S0007,T01,LDIAM,15.5,mm,812,TA29
S0007,,SUMDIAM,15.5,mm,812,TA29
S0007,T01,LDIAM,15.5,mm,840,TA30
S0007,,SUMDIAM,15.5,mm,840,TA30
S0007,T01,LDIAM,15.5,mm,868,TA31
S0007,,SUMDIAM,15.5,mm,868,TA31
S0007,T01,LDIAM,15.5,mm,896,TA32
S0007,,SUMDIAM,15.5,mm,896,TA32
S0007,T01,LDIAM,15.5,mm,924,TA33
S0007,,SUMDIAM,15.5,mm,924,TA33
S0008,T01,LDIAM,29.5,mm,0,BASELINE
S0008,T02,LDIAM,58.0,mm,0,BASELINE
S0008,T03,LDIAM,32.7,mm,0,BASELINE
S0008,,SUMDIAM,120.2,mm,0,BASELINE
S0008,T01,LDIAM,21.2,mm,28,TA1
S0008,T02,LDIAM,41.7,mm,28,TA1
S0008,T03,LDIAM,23.5,mm,28,TA1
S0008,,SUMDIAM,86.5,mm,28,TA1
S0008,T01,LDIAM,12.9,mm,56,TA2
S0008,T02,LDIAM,25.4,mm,56,TA2
S0008,T03,LDIAM,14.3,mm,56,TA2
S0008,,SUMDIAM,52.7,mm,56,TA2
S0008,T01,LDIAM,12.9,mm,84,TA3
S0008,T02,LDIAM,25.4,mm,84,TA3
S0008,T03,LDIAM,14.3,mm,84,TA3
S0008,,SUMDIAM,52.7,mm,84,TA3
S0008,T01,LDIAM,12.9,mm,112,TA4
S0008,T02,LDIAM,25.4,mm,112,TA4
S0008,T03,LDIAM,14.3,mm,112,TA4
S0008,,SUMDIAM,52.7,mm,112,TA4
S0008,T01,LDIAM,12.9,mm,140,TA5
S0008,T02,LDIAM,25.4,mm,140,TA5
S0008,T03,LDIAM,14.3,mm,140,TA5
S0008,,SUMDIAM,52.7,mm,140,TA5
S0012,T01,LDIAM,57.7,mm,0,BASELINE
S0012,T02,LDIAM,16.7,mm,0,BASELINE
S0012,T03,LDIAM,11.7,mm,0,BASELINE
S0012,,SUMDIAM,86.1,mm,0,BASELINE
S0012,T01,LDIAM,28.9,mm,28,TA1
S0012,T02,LDIAM,8.3,mm,28,TA1
S0012,T03,LDIAM,5.8,mm,28,TA1
S0012,,SUMDIAM,43.1,mm,28,TA1
S0012,T01,LDIAM,0.0,mm,56,TA2
S0012,T02,LDIAM,0.0,mm,56,TA2
S0012,T03,LDIAM,0.0,mm,56,TA2
S0012,,SUMDIAM,0.0,mm,56,TA2
S0012,T01,LDIAM,0.0,mm,84,TA3
S0012,T02,LDIAM,0.0,mm,84,TA3
S0012,T03,LDIAM,0.0,mm,84,TA3
S0012,,SUMDIAM,0.0,mm,84,TA3
S0012,T01,LDIAM,0.0,mm,112,TA4
S0012,T02,LDIAM,0.0,mm,112,TA4
S0012,T03,LDIAM,0.0,mm,112,TA4
S0012,,SUMDIAM,0.0,mm,112,TA4
S0012,T01,LDIAM,0.0,mm,140,TA5
S0012,T02,LDIAM,0.0,mm,140,TA5
S0012,T03,LDIAM,0.0,mm,140,TA5
S0012,,SUMDIAM,0.0,mm,140,TA5
S0012,T01,LDIAM,0.0,mm,168,TA6
S0012,T02,LDIAM,0.0,mm,168,TA6
S0012,T03,LDIAM,0.0,mm,168,TA6
S0012,,SUMDIAM,0.0,mm,168,TA6
S0012,T01,LDIAM,0.0,mm,196,TA7
S0012,T02,LDIAM,0.0,mm,196,TA7
S0012,T03,LDIAM,0.0,mm,196,TA7
S0012,,SUMDIAM,0.0,mm,196,TA7
S0012,T01,LDIAM,0.0,mm,224,TA8
S0012,T02,LDIAM,0.0,mm,224,TA8
S0012,T03,LDIAM,0.0,mm,224,TA8
S0012,,SUMDIAM,0.0,mm,224,TA8
S0012,T01,LDIAM,0.0,mm,252,TA9
S0012,T02,LDIAM,0.0,mm,252,TA9
S0012,T03,LDIAM,0.0,mm,252,TA9
S0012,,SUMDIAM,0.0,mm,252,TA9
S0012,T01,LDIAM,0.0,mm,280,TA10
S0012,T02,LDIAM,0.0,mm,280,TA10
S0012,T03,LDIAM,0.0,mm,280,TA10
S0012,,SUMDIAM,0.0,mm,280,TA10
S0012,T01,LDIAM,0.0,mm,308,TA11
S0012,T02,LDIAM,0.0,mm,308,TA11
S0012,T03,LDIAM,0.0,mm,308,TA11
S0012,,SUMDIAM,0.0,mm,308,TA11
S0012,T01,LDIAM,0.0,mm,336,TA12
S0012,T02,LDIAM,0.0,mm,336,TA12
S0012,T03,LDIAM,0.0,mm,336,TA12
S0012,,SUMDIAM,0.0,mm,336,TA12
S0012,T01,LDIAM,0.0,mm,364,TA13
S0012,T02,LDIAM,0.0,mm,364,TA13
S0012,T03,LDIAM,0.0,mm,364,TA13
S0012,,SUMDIAM,0.0,mm,364,TA13
S0012,T01,LDIAM,0.0,mm,392,TA14
S0012,T02,LDIAM,0.0,mm,392,TA14
S0012,T03,LDIAM,0.0,mm,392,TA14
S0012,,SUMDIAM,0.0,mm,392,TA14
S0012,T01,LDIAM,0.0,mm,420,TA15
S0012,T02,LDIAM,0.0,mm,420,TA15
S0012,T03,LDIAM,0.0,mm,420,TA15
S0012,,SUMDIAM,0.0,mm,420,TA15
S0012,T01,LDIAM,0.0,mm,448,TA16
S0012,T02,LDIAM,0.0,mm,448,TA16
S0012,T03,LDIAM,0.0,mm,448,TA16
S0012,,SUMDIAM,0.0,mm,448,TA16
S0012,T01,LDIAM,0.0,mm,476,TA17
S0012,T02,LDIAM,0.0,mm,476,TA17
S0012,T03,LDIAM,0.0,mm,476,TA17
S0012,,SUMDIAM,0.0,mm,476,TA17
S0012,T01,LDIAM,0.0,mm,504,TA18
S0012,T02,LDIAM,0.0,mm,504,TA18
S0012,T03,LDIAM,0.0,mm,504,TA18
S0012,,SUMDIAM,0.0,mm,504,TA18
S0012,T01,LDIAM,0.0,mm,532,TA19
S0012,T02,LDIAM,0.0,mm,532,TA19
S0012,T03,LDIAM,0.0,mm,532,TA19
S0012,,SUMDIAM,0.0,mm,532,TA19
S0012,T01,LDIAM,0.0,mm,560,TA20
S0012,T02,LDIAM,0.0,mm,560,TA20
S0012,T03,LDIAM,0.0,mm,560,TA20
S0012,,SUMDIAM,0.0,mm,560,TA20
S0012,T01,LDIAM,0.0,mm,588,TA21
S0012,T02,LDIAM,0.0,mm,588,TA21
S0012,T03,LDIAM,0.0,mm,588,TA21
S0012,,SUMDIAM,0.0,mm,588,TA21
S0012,T01,LDIAM,0.0,mm,616,TA22
S0012,T02,LDIAM,0.0,mm,616,TA22
S0012,T03,LDIAM,0.0,mm,616,TA22
S0012,,SUMDIAM,0.0,mm,616,TA22
S0012,T01,LDIAM,0.0,mm,644,TA23
S0012,T02,LDIAM,0.0,mm,644,TA23
S0012,T03,LDIAM,0.0,mm,644,TA23
S0012,,SUMDIAM,0.0,mm,644,TA23
S0012,T01,LDIAM,0.0,mm,672,TA24
S0012,T02,LDIAM,0.0,mm,672,TA24
S0012,T03,LDIAM,0.0,mm,672,TA24
S0012,,SUMDIAM,0.0,mm,672,TA24
S0012,T01,LDIAM,0.0,mm,700,TA25
S0012,T02,LDIAM,0.0,mm,700,TA25
S0012,T03,LDIAM,0.0,mm,700,TA25
S0012,,SUMDIAM,0.0,mm,700,TA25
S0012,T01,LDIAM,0.0,mm,728,TA26
S0012,T02,LDIAM,0.0,mm,728,TA26
S0012,T03,LDIAM,0.0,mm,728,TA26
S0012,,SUMDIAM,0.0,mm,728,TA26
S0012,T01,LDIAM,0.0,mm,756,TA27
S0012,T02,LDIAM,0.0,mm,756,TA27
S0012,T03,LDIAM,0.0,mm,756,TA27
S0012,,SUMDIAM,0.0,mm,756,TA27
S0012,T01,LDIAM,0.0,mm,784,TA28
S0012,T02,LDIAM,0.0,mm,784,TA28
S0012,T03,LDIAM,0.0,mm,784,TA28
S0012,,SUMDIAM,0.0,mm,784,TA28
S0012,T01,LDIAM,0.0,mm,812,TA29
S0012,T02,LDIAM,0.0,mm,812,TA29
S0012,T03,LDIAM,0.0,mm,812,TA29
S0012,,SUMDIAM,0.0,mm,812,TA29
S0012,T01,LDIAM,0.0,mm,840,TA30
S0012,T02,LDIAM,0.0,mm,840,TA30
S0012,T03,LDIAM,0.0,mm,840,TA30
S0012,,SUMDIAM,0.0,mm,840,TA30
S0012,T01,LDIAM,0.0,mm,868,TA31
S0012,T02,LDIAM,0.0,mm,868,TA31
S0012,T03,LDIAM,0.0,mm,868,TA31
S0012,,SUMDIAM,0.0,mm,868,TA31
S0012,T01,LDIAM,0.0,mm,896,TA32
S0012,T02,LDIAM,0.0,mm,896,TA32
S0012,T03,LDIAM,0.0,mm,896,TA32
S0012,,SUMDIAM,0.0,mm,896,TA32
S0012,T01,LDIAM,0.0,mm,924,TA33
S0012,T02,LDIAM,0.0,mm,924,TA33
S0012,T03,LDIAM,0.0,mm,924,TA33
S0012,,SUMDIAM,0.0,mm,924,TA33
S0012,T01,LDIAM,0.0,mm,952,TA34
S0012,T02,LDIAM,0.0,mm,952,TA34
S0012,T03,LDIAM,0.0,mm,952,TA34
S0012,,SUMDIAM,0.0,mm,952,TA34
S0012,T01,LDIAM,0.0,mm,980,TA35
S0012,T02,LDIAM,0.0,mm,980,TA35
S0012,T03,LDIAM,0.0,mm,980,TA35
S0012,,SUMDIAM,0.0,mm,980,TA35
S0012,T01,LDIAM,0.0,mm,1008,TA36
S0012,T02,LDIAM,0.0,mm,1008,TA36
S0012,T03,LDIAM,0.0,mm,1008,TA36
S0012,,SUMDIAM,0.0,mm,1008,TA36
S0012,T01,LDIAM,0.0,mm,1036,TA37
S0012,T02,LDIAM,0.0,mm,1036,TA37
S0012,T03,LDIAM,0.0,mm,1036,TA37
S0012,,SUMDIAM,0.0,mm,1036,TA37
S0012,T01,LDIAM,0.0,mm,1064,TA38
S0012,T02,LDIAM,0.0,mm,1064,TA38
S0012,T03,LDIAM,0.0,mm,1064,TA38
S0012,,SUMDIAM,0.0,mm,1064,TA38
S0012,T01,LDIAM,0.0,mm,1092,TA39
S0012,T02,LDIAM,0.0,mm,1092,TA39
S0012,T03,LDIAM,0.0,mm,1092,TA39
S0012,,SUMDIAM,0.0,mm,1092,TA39
S0012,T01,LDIAM,0.0,mm,1120,TA40
S0012,T02,LDIAM,0.0,mm,1120,TA40
S0012,T03,LDIAM,0.0,mm,1120,TA40
S0012,,SUMDIAM,0.0,mm,1120,TA40
S0012,T01,LDIAM,0.0,mm,1148,TA41
S0012,T02,LDIAM,0.0,mm,1148,TA41
S0012,T03,LDIAM,0.0,mm,1148,TA41
S0012,,SUMDIAM,0.0,mm,1148,TA41
S0012,T01,LDIAM,0.0,mm,1176,TA42
S0012,T02,LDIAM,0.0,mm,1176,TA42
S0012,T03,LDIAM,0.0,mm,1176,TA42
S0012,,SUMDIAM,0.0,mm,1176,TA42
S0012,T01,LDIAM,0.0,mm,1204,TA43
S0012,T02,LDIAM,0.0,mm,1204,TA43
S0012,T03,LDIAM,0.0,mm,1204,TA43
S0012,,SUMDIAM,0.0,mm,1204,TA43
S0012,T01,LDIAM,0.0,mm,1232,TA44
S0012,T02,LDIAM,0.0,mm,1232,TA44
S0012,T03,LDIAM,0.0,mm,1232,TA44
S0012,,SUMDIAM,0.0,mm,1232,TA44
S0012,T01,LDIAM,0.0,mm,1260,TA45
S0012,T02,LDIAM,0.0,mm,1260,TA45
S0012,T03,LDIAM,0.0,mm,1260,TA45
S0012,,SUMDIAM,0.0,mm,1260,TA45
S0012,T01,LDIAM,0.0,mm,1288,TA46
S0012,T02,LDIAM,0.0,mm,1288,TA46
S0012,T03,LDIAM,0.0,mm,1288,TA46
S0012,,SUMDIAM,0.0,mm,1288,TA46
S0012,T01,LDIAM,0.0,mm,1316,TA47
S0012,T02,LDIAM,0.0,mm,1316,TA47
S0012,T03,LDIAM,0.0,mm,1316,TA47
S0012,,SUMDIAM,0.0,mm,1316,TA47
S0012,T01,LDIAM,0.0,mm,1344,TA48
S0012,T02,LDIAM,0.0,mm,1344,TA48
S0012,T03,LDIAM,0.0,mm,1344,TA48
S0012,,SUMDIAM,0.0,mm,1344,TA48
S0012,T01,LDIAM,0.0,mm,1372,TA49
S0012,T02,LDIAM,0.0,mm,1372,TA49
S0012,T03,LDIAM,0.0,mm,1372,TA49
S0012,,SUMDIAM,0.0,mm,1372,TA49
S0012,T01,LDIAM,0.0,mm,1400,TA50
S0012,T02,LDIAM,0.0,mm,1400,TA50
S0012,T03,LDIAM,0.0,mm,1400,TA50
S0012,,SUMDIAM,0.0,mm,1400,TA50
S0012,T01,LDIAM,0.0,mm,1428,TA51
S0012,T02,LDIAM,0.0,mm,1428,TA51
S0012,T03,LDIAM,0.0,mm,1428,TA51
S0012,,SUMDIAM,0.0,mm,1428,TA51
S0012,T01,LDIAM,0.0,mm,1456,TA52
S0012,T02,LDIAM,0.0,mm,1456,TA52
S0012,T03,LDIAM,0.0,mm,1456,TA52
S0012,,SUMDIAM,0.0,mm,1456,TA52
S0012,T01,LDIAM,0.0,mm,1484,TA53
S0012,T02,LDIAM,0.0,mm,1484,TA53
S0012,T03,LDIAM,0.0,mm,1484,TA53
S0012,,SUMDIAM,0.0,mm,1484,TA53
S0012,T01,LDIAM,0.0,mm,1512,TA54
S0012,T02,LDIAM,0.0,mm,1512,TA54
S0012,T03,LDIAM,0.0,mm,1512,TA54
S0012,,SUMDIAM,0.0,mm,1512,TA54
S0012,T01,LDIAM,0.0,mm,1540,TA55
S0012,T02,LDIAM,0.0,mm,1540,TA55
S0012,T03,LDIAM,0.0,mm,1540,TA55
S0012,,SUMDIAM,0.0,mm,1540,TA55
S0012,T01,LDIAM,0.0,mm,1568,TA56
S0012,T02,LDIAM,0.0,mm,1568,TA56
S0012,T03,LDIAM,0.0,mm,1568,TA56
S0012,,SUMDIAM,0.0,mm,1568,TA56
S0012,T01,LDIAM,0.0,mm,1596,TA57
S0012,T02,LDIAM,0.0,mm,1596,TA57
S0012,T03,LDIAM,0.0,mm,1596,TA57
S0012,,SUMDIAM,0.0,mm,1596,TA57
S0012,T01,LDIAM,0.0,mm,1624,TA58
S0012,T02,LDIAM,0.0,mm,1624,TA58
S0012,T03,LDIAM,0.0,mm,1624,TA58
S0012,,SUMDIAM,0.0,mm,1624,TA58
S0012,T01,LDIAM,0.0,mm,1652,TA59
S0012,T02,LDIAM,0.0,mm,1652,TA59
S0012,T03,LDIAM,0.0,mm,1652,TA59
S0012,,SUMDIAM,0.0,mm,1652,TA59
S0012,T01,LDIAM,0.0,mm,1680,TA60
S0012,T02,LDIAM,0.0,mm,1680,TA60
S0012,T03,LDIAM,0.0,mm,1680,TA60
S0012,,SUMDIAM,0.0,mm,1680,TA60
S0012,T01,LDIAM,0.0,mm,1708,TA61
S0012,T02,LDIAM,0.0,mm,1708,TA61
S0012,T03,LDIAM,0.0,mm,1708,TA61
S0012,,SUMDIAM,0.0,mm,1708,TA61
S0012,T01,LDIAM,0.0,mm,1736,TA62
S0012,T02,LDIAM,0.0,mm,1736,TA62
S0012,T03,LDIAM,0.0,mm,1736,TA62
S0012,,SUMDIAM,0.0,mm,1736,TA62
S0012,T01,LDIAM,0.0,mm,1764,TA63
S0012,T02,LDIAM,0.0,mm,1764,TA63
S0012,T03,LDIAM,0.0,mm,1764,TA63
S0012,,SUMDIAM,0.0,mm,1764,TA63
S0012,T01,LDIAM,0.0,mm,1792,TA64
S0012,T02,LDIAM,0.0,mm,1792,TA64
S0012,T03,LDIAM,0.0,mm,1792,TA64
S0012,,SUMDIAM,0.0,mm,1792,TA64
S0012,T01,LDIAM,0.0,mm,1820,TA65
S0012,T02,LDIAM,0.0,mm,1820,TA65
S0012,T03,LDIAM,0.0,mm,1820,TA65
S0012,,SUMDIAM,0.0,mm,1820,TA65
S0012,T01,LDIAM,0.0,mm,1848,TA66
S0012,T02,LDIAM,0.0,mm,1848,TA66
S0012,T03,LDIAM,0.0,mm,1848,TA66
S0012,,SUMDIAM,0.0,mm,1848,TA66
S0012,T01,LDIAM,0.0,mm,1876,TA67
S0012,T02,LDIAM,0.0,mm,1876,TA67
S0012,T03,LDIAM,0.0,mm,1876,TA67
S0012,,SUMDIAM,0.0,mm,1876,TA67
S0012,T01,LDIAM,0.0,mm,1904,TA68
S0012,T02,LDIAM,0.0,mm,1904,TA68
S0012,T03,LDIAM,0.0,mm,1904,TA68
S0012,,SUMDIAM,0.0,mm,1904,TA68
S0012,T01,LDIAM,0.0,mm,1932,TA69
S0012,T02,LDIAM,0.0,mm,1932,TA69
S0012,T03,LDIAM,0.0,mm,1932,TA69
S0012,,SUMDIAM,0.0,mm,1932,TA69
S0012,T01,LDIAM,0.0,mm,1960,TA70
S0012,T02,LDIAM,0.0,mm,1960,TA70
S0012,T03,LDIAM,0.0,mm,1960,TA70
S0012,,SUMDIAM,0.0,mm,1960,TA70
S0012,T01,LDIAM,0.0,mm,1988,TA71
S0012,T02,LDIAM,0.0,mm,1988,TA71
S0012,T03,LDIAM,0.0,mm,1988,TA71
S0012,,SUMDIAM,0.0,mm,1988,TA71
S0012,T01,LDIAM,0.0,mm,2016,TA72
S0012,T02,LDIAM,0.0,mm,2016,TA72
S0012,T03,LDIAM,0.0,mm,2016,TA72
S0012,,SUMDIAM,0.0,mm,2016,TA72
S0012,T01,LDIAM,2.9,mm,2044,TA73
S0012,T02,LDIAM,0.8,mm,2044,TA73
S0012,T03,LDIAM,0.6,mm,2044,TA73
S0012,,SUMDIAM,4.3,mm,2044,TA73
S0012,T01,LDIAM,2.9,mm,2072,TA74
S0012,T02,LDIAM,0.8,mm,2072,TA74
S0012,T03,LDIAM,0.6,mm,2072,TA74
S0012,,SUMDIAM,4.3,mm,2072,TA74
S0012,T01,LDIAM,2.9,mm,2100,TA75
S0012,T02,LDIAM,0.8,mm,2100,TA75
S0012,T03,LDIAM,0.6,mm,2100,TA75
S0012,,SUMDIAM,4.3,mm,2100,TA75
S0012,T01,LDIAM,2.9,mm,2128,TA76
S0012,T02,LDIAM,0.8,mm,2128,TA76
S0012,T03,LDIAM,0.6,mm,2128,TA76
S0012,,SUMDIAM,4.3,mm,2128,TA76
S0012,T01,LDIAM,2.9,mm,2156,TA77
S0012,T02,LDIAM,0.8,mm,2156,TA77
S0012,T03,LDIAM,0.6,mm,2156,TA77
S0012,,SUMDIAM,4.3,mm,2156,TA77
S0012,T01,LDIAM,2.9,mm,2184,TA78
S0012,T02,LDIAM,0.8,mm,2184,TA78
S0012,T03,LDIAM,0.6,mm,2184,TA78
S0012,,SUMDIAM,4.3,mm,2184,TA78
S0012,T01,LDIAM,2.9,mm,2212,TA79
S0012,T02,LDIAM,0.8,mm,2212,TA79
S0012,T03,LDIAM,0.6,mm,2212,TA79
S0012,,SUMDIAM,4.3,mm,2212,TA79
S0012,T01,LDIAM,2.9,mm,2240,TA80
S0012,T02,LDIAM,0.8,mm,2240,TA80
S0012,T03,LDIAM,0.6,mm,2240,TA80
S0012,,SUMDIAM,4.3,mm,2240,TA80
S0012,T01,LDIAM,2.9,mm,2268,TA81
S0012,T02,LDIAM,0.8,mm,2268,TA81
S0012,T03,LDIAM,0.6,mm,2268,TA81
S0012,,SUMDIAM,4.3,mm,2268,TA81
S0012,T01,LDIAM,2.9,mm,2296,TA82
S0012,T02,LDIAM,0.8,mm,2296,TA82
S0012,T03,LDIAM,0.6,mm,2296,TA82
S0012,,SUMDIAM,4.3,mm,2296,TA82
S0012,T01,LDIAM,2.9,mm,2324,TA83
S0012,T02,LDIAM,0.8,mm,2324,TA83
S0012,T03,LDIAM,0.6,mm,2324,TA83
S0012,,SUMDIAM,4.3,mm,2324,TA83
S0012,T01,LDIAM,2.9,mm,2352,TA84
S0012,T02,LDIAM,0.8,mm,2352,TA84
S0012,T03,LDIAM,0.6,mm,2352,TA84
S0012,,SUMDIAM,4.3,mm,2352,TA84
S0012,T01,LDIAM,2.9,mm,2380,TA85
S0012,T02,LDIAM,0.8,mm,2380,TA85
S0012,T03,LDIAM,0.6,mm,2380,TA85
S0012,,SUMDIAM,4.3,mm,2380,TA85
S0012,T01,LDIAM,2.9,mm,2408,TA86
S0012,T02,LDIAM,0.8,mm,2408,TA86
S0012,T03,LDIAM,0.6,mm,2408,TA86
S0012,,SUMDIAM,4.3,mm,2408,TA86
S0012,T01,LDIAM,2.9,mm,2436,TA87
S0012,T02,LDIAM,0.8,mm,2436,TA87
S0012,T03,LDIAM,0.6,mm,2436,TA87
S0012,,SUMDIAM,4.3,mm,2436,TA87
S0012,T01,LDIAM,2.9,mm,2464,TA88
S0012,T02,LDIAM,0.8,mm,2464,TA88
S0012,T03,LDIAM,0.6,mm,2464,TA88
S0012,,SUMDIAM,4.3,mm,2464,TA88
S0012,T01,LDIAM,2.9,mm,2492,TA89
S0012,T02,LDIAM,0.8,mm,2492,TA89
S0012,T03,LDIAM,0.6,mm,2492,TA89
S0012,,SUMDIAM,4.3,mm,2492,TA89
S0012,T01,LDIAM,2.9,mm,2520,TA90
S0012,T02,LDIAM,0.8,mm,2520,TA90
S0012,T03,LDIAM,0.6,mm,2520,TA90
S0012,,SUMDIAM,4.3,mm,2520,TA90
S0012,T01,LDIAM,2.9,mm,2548,TA91
S0012,T02,LDIAM,0.8,mm,2548,TA91
S0012,T03,LDIAM,0.6,mm,2548,TA91
S0012,,SUMDIAM,4.3,mm,2548,TA91
S0012,T01,LDIAM,2.9,mm,2576,TA92
S0012,T02,LDIAM,0.8,mm,2576,TA92
S0012,T03,LDIAM,0.6,mm,2576,TA92
S0012,,SUMDIAM,4.3,mm,2576,TA92
S0012,T01,LDIAM,2.9,mm,2604,TA93
S0012,T02,LDIAM,0.8,mm,2604,TA93
S0012,T03,LDIAM,0.6,mm,2604,TA93
S0012,,SUMDIAM,4.3,mm,2604,TA93
S0013,T01,LDIAM,51.6,mm,0,BASELINE
S0013,T02,LDIAM,34.3,mm,0,BASELINE
S0013,T03,LDIAM,38.9,mm,0,BASELINE
S0013,,SUMDIAM,124.8,mm,0,BASELINE
S0013,T01,LDIAM,25.8,mm,28,TA1
S0013,T02,LDIAM,17.1,mm,28,TA1
S0013,T03,LDIAM,19.4,mm,28,TA1
S0013,,SUMDIAM,62.4,mm,28,TA1
S0013,T01,LDIAM,0.0,mm,56,TA2
S0013,T02,LDIAM,0.0,mm,56,TA2
S0013,T03,LDIAM,0.0,mm,56,TA2
S0013,,SUMDIAM,0.0,mm,56,TA2
S0013,T01,LDIAM,0.0,mm,84,TA3
S0013,T02,LDIAM,0.0,mm,84,TA3
S0013,T03,LDIAM,0.0,mm,84,TA3
S0013,,SUMDIAM,0.0,mm,84,TA3
S0013,T01,LDIAM,0.0,mm,112,TA4
S0013,T02,LDIAM,0.0,mm,112,TA4
S0013,T03,LDIAM,0.0,mm,112,TA4
S0013,,SUMDIAM,0.0,mm,112,TA4
S0013,T01,LDIAM,2.6,mm,140,TA5
S0013,T02,LDIAM,1.7,mm,140,TA5
S0013,T03,LDIAM,1.9,mm,140,TA5
S0013,,SUMDIAM,6.2,mm,140,TA5
S0013,T01,LDIAM,2.6,mm,168,TA6
S0013,T02,LDIAM,1.7,mm,168,TA6
S0013,T03,LDIAM,1.9,mm,168,TA6
S0013,,SUMDIAM,6.2,mm,168,TA6
S0013,T01,LDIAM,2.6,mm,196,TA7
S0013,T02,LDIAM,1.7,mm,196,TA7
S0013,T03,LDIAM,1.9,mm,196,TA7
S0013,,SUMDIAM,6.2,mm,196,TA7
S0013,T01,LDIAM,2.6,mm,224,TA8
S0013,T02,LDIAM,1.7,mm,224,TA8
S0013,T03,LDIAM,1.9,mm,224,TA8
S0013,,SUMDIAM,6.2,mm,224,TA8
S0013,T01,LDIAM,2.6,mm,252,TA9
S0013,T02,LDIAM,1.7,mm,252,TA9
S0013,T03,LDIAM,1.9,mm,252,TA9
S0013,,SUMDIAM,6.2,mm,252,TA9
S0013,T01,LDIAM,2.6,mm,280,TA10
S0013,T02,LDIAM,1.7,mm,280,TA10
S0013,T03,LDIAM,1.9,mm,280,TA10
S0013,,SUMDIAM,6.2,mm,280,TA10
S0013,T01,LDIAM,2.6,mm,308,TA11
S0013,T02,LDIAM,1.7,mm,308,TA11
S0013,T03,LDIAM,1.9,mm,308,TA11
S0013,,SUMDIAM,6.2,mm,308,TA11
S0013,T01,LDIAM,2.6,mm,336,TA12
S0013,T02,LDIAM,1.7,mm,336,TA12
S0013,T03,LDIAM,1.9,mm,336,TA12
S0013,,SUMDIAM,6.2,mm,336,TA12
S0013,T01,LDIAM,2.6,mm,364,TA13
S0013,T02,LDIAM,1.7,mm,364,TA13
S0013,T03,LDIAM,1.9,mm,364,TA13
S0013,,SUMDIAM,6.2,mm,364,TA13
S0013,T01,LDIAM,2.6,mm,392,TA14
S0013,T02,LDIAM,1.7,mm,392,TA14
S0013,T03,LDIAM,1.9,mm,392,TA14
S0013,,SUMDIAM,6.2,mm,392,TA14
S0013,T01,LDIAM,2.6,mm,420,TA15
S0013,T02,LDIAM,1.7,mm,420,TA15
S0013,T03,LDIAM,1.9,mm,420,TA15
S0013,,SUMDIAM,6.2,mm,420,TA15
S0013,T01,LDIAM,2.6,mm,448,TA16
S0013,T02,LDIAM,1.7,mm,448,TA16
S0013,T03,LDIAM,1.9,mm,448,TA16
S0013,,SUMDIAM,6.2,mm,448,TA16
S0013,T01,LDIAM,2.6,mm,476,TA17
S0013,T02,LDIAM,1.7,mm,476,TA17
S0013,T03,LDIAM,1.9,mm,476,TA17
S0013,,SUMDIAM,6.2,mm,476,TA17
S0013,T01,LDIAM,2.6,mm,504,TA18
S0013,T02,LDIAM,1.7,mm,504,TA18
S0013,T03,LDIAM,1.9,mm,504,TA18
S0013,,SUMDIAM,6.2,mm,504,TA18
S0013,T01,LDIAM,2.6,mm,532,TA19
S0013,T02,LDIAM,1.7,mm,532,TA19
S0013,T03,LDIAM,1.9,mm,532,TA19
S0013,,SUMDIAM,6.2,mm,532,TA19
S0013,T01,LDIAM,2.6,mm,560,TA20
S0013,T02,LDIAM,1.7,mm,560,TA20
S0013,T03,LDIAM,1.9,mm,560,TA20
S0013,,SUMDIAM,6.2,mm,560,TA20
S0013,T01,LDIAM,2.6,mm,588,TA21
S0013,T02,LDIAM,1.7,mm,588,TA21
S0013,T03,LDIAM,1.9,mm,588,TA21
S0013,,SUMDIAM,6.2,mm,588,TA21
S0013,T01,LDIAM,2.6,mm,616,TA22
S0013,T02,LDIAM,1.7,mm,616,TA22
S0013,T03,LDIAM,1.9,mm,616,TA22
S0013,,SUMDIAM,6.2,mm,616,TA22
S0013,T01,LDIAM,2.6,mm,644,TA23
S0013,T02,LDIAM,1.7,mm,644,TA23
S0013,T03,LDIAM,1.9,mm,644,TA23
S0013,,SUMDIAM,6.2,mm,644,TA23
S0013,T01,LDIAM,2.6,mm,672,TA24
S0013,T02,LDIAM,1.7,mm,672,TA24
S0013,T03,LDIAM,1.9,mm,672,TA24
S0013,,SUMDIAM,6.2,mm,672,TA24
S0013,T01,LDIAM,2.6,mm,700,TA25
S0013,T02,LDIAM,1.7,mm,700,TA25
S0013,T03,LDIAM,1.9,mm,700,TA25
S0013,,SUMDIAM,6.2,mm,700,TA25
S0013,T01,LDIAM,2.6,mm,728,TA26
S0013,T02,LDIAM,1.7,mm,728,TA26
S0013,T03,LDIAM,1.9,mm,728,TA26
S0013,,SUMDIAM,6.2,mm,728,TA26
S0013,T01,LDIAM,2.6,mm,756,TA27
S0013,T02,LDIAM,1.7,mm,756,TA27
S0013,T03,LDIAM,1.9,mm,756,TA27
S0013,,SUMDIAM,6.2,mm,756,TA27
S0013,T01,LDIAM,2.6,mm,784,TA28
S0013,T02,LDIAM,1.7,mm,784,TA28
S0013,T03,LDIAM,1.9,mm,784,TA28
S0013,,SUMDIAM,6.2,mm,784,TA28
S0013,T01,LDIAM,2.6,mm,812,TA29
S0013,T02,LDIAM,1.7,mm,812,TA29
S0013,T03,LDIAM,1.9,mm,812,TA29
S0013,,SUMDIAM,6.2,mm,812,TA29
S0013,T01,LDIAM,2.6,mm,840,TA30
S0013,T02,LDIAM,1.7,mm,840,TA30
S0013,T03,LDIAM,1.9,mm,840,TA30
S0013,,SUMDIAM,6.2,mm,840,TA30
S0013,T01,LDIAM,2.6,mm,868,TA31
S0013,T02,LDIAM,1.7,mm,868,TA31
S0013,T03,LDIAM,1.9,mm,868,TA31
S0013,,SUMDIAM,6.2,mm,868,TA31
S0013,T01,LDIAM,2.6,mm,896,TA32
S0013,T02,LDIAM,1.7,mm,896,TA32
S0013,T03,LDIAM,1.9,mm,896,TA32
S0013,,SUMDIAM,6.2,mm,896,TA32
S0013,T01,LDIAM,2.6,mm,924,TA33
S0013,T02,LDIAM,1.7,mm,924,TA33
S0013,T03,LDIAM,1.9,mm,924,TA33
S0013,,SUMDIAM,6.2,mm,924,TA33
S0013,T01,LDIAM,2.6,mm,952,TA34
S0013,T02,LDIAM,1.7,mm,952,TA34
S0013,T03,LDIAM,1.9,mm,952,TA34
S0013,,SUMDIAM,6.2,mm,952,TA34
S0013,T01,LDIAM,2.6,mm,980,TA35
S0013,T02,LDIAM,1.7,mm,980,TA35
S0013,T03,LDIAM,1.9,mm,980,TA35
S0013,,SUMDIAM,6.2,mm,980,TA35
S0013,T01,LDIAM,2.6,mm,1008,TA36
S0013,T02,LDIAM,1.7,mm,1008,TA36
S0013,T03,LDIAM,1.9,mm,1008,TA36
S0013,,SUMDIAM,6.2,mm,1008,TA36
S0013,T01,LDIAM,2.6,mm,1036,TA37
S0013,T02,LDIAM,1.7,mm,1036,TA37
S0013,T03,LDIAM,1.9,mm,1036,TA37
S0013,,SUMDIAM,6.2,mm,1036,TA37
S0013,T01,LDIAM,2.6,mm,1064,TA38
S0013,T02,LDIAM,1.7,mm,1064,TA38
S0013,T03,LDIAM,1.9,mm,1064,TA38
S0013,,SUMDIAM,6.2,mm,1064,TA38
S0013,T01,LDIAM,2.6,mm,1092,TA39
S0013,T02,LDIAM,1.7,mm,1092,TA39
S0013,T03,LDIAM,1.9,mm,1092,TA39
S0013,,SUMDIAM,6.2,mm,1092,TA39
S0013,T01,LDIAM,2.6,mm,1120,TA40
S0013,T02,LDIAM,1.7,mm,1120,TA40
S0013,T03,LDIAM,1.9,mm,1120,TA40
S0013,,SUMDIAM,6.2,mm,1120,TA40
S0013,T01,LDIAM,2.6,mm,1148,TA41
S0013,T02,LDIAM,1.7,mm,1148,TA41
S0013,T03,LDIAM,1.9,mm,1148,TA41
S0013,,SUMDIAM,6.2,mm,1148,TA41
S0013,T01,LDIAM,2.6,mm,1176,TA42
S0013,T02,LDIAM,1.7,mm,1176,TA42
S0013,T03,LDIAM,1.9,mm,1176,TA42
S0013,,SUMDIAM,6.2,mm,1176,TA42
S0013,T01,LDIAM,2.6,mm,1204,TA43
S0013,T02,LDIAM,1.7,mm,1204,TA43
S0013,T03,LDIAM,1.9,mm,1204,TA43
S0013,,SUMDIAM,6.2,mm,1204,TA43
S0013,T01,LDIAM,2.6,mm,1232,TA44
S0013,T02,LDIAM,1.7,mm,1232,TA44
S0013,T03,LDIAM,1.9,mm,1232,TA44
S0013,,SUMDIAM,6.2,mm,1232,TA44
S0013,T01,LDIAM,2.6,mm,1260,TA45
S0013,T02,LDIAM,1.7,mm,1260,TA45
S0013,T03,LDIAM,1.9,mm,1260,TA45
S0013,,SUMDIAM,6.2,mm,1260,TA45
S0013,T01,LDIAM,2.6,mm,1288,TA46
S0013,T02,LDIAM,1.7,mm,1288,TA46
S0013,T03,LDIAM,1.9,mm,1288,TA46
S0013,,SUMDIAM,6.2,mm,1288,TA46
S0013,T01,LDIAM,2.6,mm,1316,TA47
S0013,T02,LDIAM,1.7,mm,1316,TA47
S0013,T03,LDIAM,1.9,mm,1316,TA47
S0013,,SUMDIAM,6.2,mm,1316,TA47
S0013,T01,LDIAM,2.6,mm,1344,TA48
S0013,T02,LDIAM,1.7,mm,1344,TA48
S0013,T03,LDIAM,1.9,mm,1344,TA48
S0013,,SUMDIAM,6.2,mm,1344,TA48
S0013,T01,LDIAM,2.6,mm,1372,TA49
S0013,T02,LDIAM,1.7,mm,1372,TA49
S0013,T03,LDIAM,1.9,mm,1372,TA49
S0013,,SUMDIAM,6.2,mm,1372,TA49
S0013,T01,LDIAM,2.6,mm,1400,TA50
S0013,T02,LDIAM,1.7,mm,1400,TA50
S0013,T03,LDIAM,1.9,mm,1400,TA50
S0013,,SUMDIAM,6.2,mm,1400,TA50
S0013,T01,LDIAM,2.6,mm,1428,TA51
S0013,T02,LDIAM,1.7,mm,1428,TA51
S0013,T03,LDIAM,1.9,mm,1428,TA51
S0013,,SUMDIAM,6.2,mm,1428,TA51
S0013,T01,LDIAM,2.6,mm,1456,TA52
S0013,T02,LDIAM,1.7,mm,1456,TA52
S0013,T03,LDIAM,1.9,mm,1456,TA52
S0013,,SUMDIAM,6.2,mm,1456,TA52
S0013,T01,LDIAM,2.6,mm,1484,TA53
S0013,T02,LDIAM,1.7,mm,1484,TA53
S0013,T03,LDIAM,1.9,mm,1484,TA53
S0013,,SUMDIAM,6.2,mm,1484,TA53
S0013,T01,LDIAM,2.6,mm,1512,TA54
S0013,T02,LDIAM,1.7,mm,1512,TA54
S0013,T03,LDIAM,1.9,mm,1512,TA54
S0013,,SUMDIAM,6.2,mm,1512,TA54
S0013,T01,LDIAM,2.6,mm,1540,TA55
S0013,T02,LDIAM,1.7,mm,1540,TA55
S0013,T03,LDIAM,1.9,mm,1540,TA55
S0013,,SUMDIAM,6.2,mm,1540,TA55
S0013,T01,LDIAM,2.6,mm,1568,TA56
S0013,T02,LDIAM,1.7,mm,1568,TA56
S0013,T03,LDIAM,1.9,mm,1568,TA56
S0013,,SUMDIAM,6.2,mm,1568,TA56
S0013,T01,LDIAM,2.6,mm,1596,TA57
S0013,T02,LDIAM,1.7,mm,1596,TA57
S0013,T03,LDIAM,1.9,mm,1596,TA57
S0013,,SUMDIAM,6.2,mm,1596,TA57
S0013,T01,LDIAM,2.6,mm,1624,TA58
S0013,T02,LDIAM,1.7,mm,1624,TA58
S0013,T03,LDIAM,1.9,mm,1624,TA58
S0013,,SUMDIAM,6.2,mm,1624,TA58
S0013,T01,LDIAM,2.6,mm,1652,TA59
S0013,T02,LDIAM,1.7,mm,1652,TA59
S0013,T03,LDIAM,1.9,mm,1652,TA59
S0013,,SUMDIAM,6.2,mm,1652,TA59
S0013,T01,LDIAM,2.6,mm,1680,TA60
S0013,T02,LDIAM,1.7,mm,1680,TA60
S0013,T03,LDIAM,1.9,mm,1680,TA60
S0013,,SUMDIAM,6.2,mm,1680,TA60
S0013,T01,LDIAM,2.6,mm,1708,TA61
S0013,T02,LDIAM,1.7,mm,1708,TA61
S0013,T03,LDIAM,1.9,mm,1708,TA61
S0013,,SUMDIAM,6.2,mm,1708,TA61
S0013,T01,LDIAM,2.6,mm,1736,TA62
S0013,T02,LDIAM,1.7,mm,1736,TA62
S0013,T03,LDIAM,1.9,mm,1736,TA62
S0013,,SUMDIAM,6.2,mm,1736,TA62
S0013,T01,LDIAM,2.6,mm,1764,TA63
S0013,T02,LDIAM,1.7,mm,1764,TA63
S0013,T03,LDIAM,1.9,mm,1764,TA63
S0013,,SUMDIAM,6.2,mm,1764,TA63
S0013,T01,LDIAM,2.6,mm,1792,TA64
S0013,T02,LDIAM,1.7,mm,1792,TA64
S0013,T03,LDIAM,1.9,mm,1792,TA64
S0013,,SUMDIAM,6.2,mm,1792,TA64
S0013,T01,LDIAM,2.6,mm,1820,TA65
S0013,T02,LDIAM,1.7,mm,1820,TA65
S0013,T03,LDIAM,1.9,mm,1820,TA65
S0013,,SUMDIAM,6.2,mm,1820,TA65
S0013,T01,LDIAM,2.6,mm,1848,TA66
S0013,T02,LDIAM,1.7,mm,1848,TA66
S0013,T03,LDIAM,1.9,mm,1848,TA66
S0013,,SUMDIAM,6.2,mm,1848,TA66
S0013,T01,LDIAM,2.6,mm,1876,TA67
S0013,T02,LDIAM,1.7,mm,1876,TA67
S0013,T03,LDIAM,1.9,mm,1876,TA67
S0013,,SUMDIAM,6.2,mm,1876,TA67
S0013,T01,LDIAM,2.6,mm,1904,TA68
S0013,T02,LDIAM,1.7,mm,1904,TA68
S0013,T03,LDIAM,1.9,mm,1904,TA68
S0013,,SUMDIAM,6.2,mm,1904,TA68
S0013,T01,LDIAM,2.6,mm,1932,TA69
S0013,T02,LDIAM,1.7,mm,1932,TA69
S0013,T03,LDIAM,1.9,mm,1932,TA69
S0013,,SUMDIAM,6.2,mm,1932,TA69
S0013,T01,LDIAM,2.6,mm,1960,TA70
S0013,T02,LDIAM,1.7,mm,1960,TA70
S0013,T03,LDIAM,1.9,mm,1960,TA70
S0013,,SUMDIAM,6.2,mm,1960,TA70
S0013,T01,LDIAM,2.6,mm,1988,TA71
S0013,T02,LDIAM,1.7,mm,1988,TA71
S0013,T03,LDIAM,1.9,mm,1988,TA71
S0013,,SUMDIAM,6.2,mm,1988,TA71
S0013,T01,LDIAM,2.6,mm,2016,TA72
S0013,T02,LDIAM,1.7,mm,2016,TA72
S0013,T03,LDIAM,1.9,mm,2016,TA72
S0013,,SUMDIAM,6.2,mm,2016,TA72
S0013,T01,LDIAM,2.6,mm,2044,TA73
S0013,T02,LDIAM,1.7,mm,2044,TA73
S0013,T03,LDIAM,1.9,mm,2044,TA73
S0013,,SUMDIAM,6.2,mm,2044,TA73
S0013,T01,LDIAM,2.6,mm,2072,TA74
S0013,T02,LDIAM,1.7,mm,2072,TA74
S0013,T03,LDIAM,1.9,mm,2072,TA74
S0013,,SUMDIAM,6.2,mm,2072,TA74
S0013,T01,LDIAM,2.6,mm,2100,TA75
S0013,T02,LDIAM,1.7,mm,2100,TA75
S0013,T03,LDIAM,1.9,mm,2100,TA75
S0013,,SUMDIAM,6.2,mm,2100,TA75
S0013,T01,LDIAM,2.6,mm,2128,TA76
S0013,T02,LDIAM,1.7,mm,2128,TA76
S0013,T03,LDIAM,1.9,mm,2128,TA76
S0013,,SUMDIAM,6.2,mm,2128,TA76
S0013,T01,LDIAM,2.6,mm,2156,TA77
S0013,T02,LDIAM,1.7,mm,2156,TA77
S0013,T03,LDIAM,1.9,mm,2156,TA77
S0013,,SUMDIAM,6.2,mm,2156,TA77
S0013,T01,LDIAM,2.6,mm,2184,TA78
S0013,T02,LDIAM,1.7,mm,2184,TA78
S0013,T03,LDIAM,1.9,mm,2184,TA78
S0013,,SUMDIAM,6.2,mm,2184,TA78
S0013,T01,LDIAM,2.6,mm,2212,TA79
S0013,T02,LDIAM,1.7,mm,2212,TA79
S0013,T03,LDIAM,1.9,mm,2212,TA79
S0013,,SUMDIAM,6.2,mm,2212,TA79
S0013,T01,LDIAM,2.6,mm,2240,TA80
S0013,T02,LDIAM,1.7,mm,2240,TA80
S0013,T03,LDIAM,1.9,mm,2240,TA80
S0013,,SUMDIAM,6.2,mm,2240,TA80
S0013,T01,LDIAM,2.6,mm,2268,TA81
S0013,T02,LDIAM,1.7,mm,2268,TA81
S0013,T03,LDIAM,1.9,mm,2268,TA81
S0013,,SUMDIAM,6.2,mm,2268,TA81
S0013,T01,LDIAM,2.6,mm,2296,TA82
S0013,T02,LDIAM,1.7,mm,2296,TA82
S0013,T03,LDIAM,1.9,mm,2296,TA82
S0013,,SUMDIAM,6.2,mm,2296,TA82
S0013,T01,LDIAM,2.6,mm,2324,TA83
S0013,T02,LDIAM,1.7,mm,2324,TA83
S0013,T03,LDIAM,1.9,mm,2324,TA83
S0013,,SUMDIAM,6.2,mm,2324,TA83
S0013,T01,LDIAM,2.6,mm,2352,TA84
S0013,T02,LDIAM,1.7,mm,2352,TA84
S0013,T03,LDIAM,1.9,mm,2352,TA84
S0013,,SUMDIAM,6.2,mm,2352,TA84
S0013,T01,LDIAM,2.6,mm,2380,TA85
S0013,T02,LDIAM,1.7,mm,2380,TA85
S0013,T03,LDIAM,1.9,mm,2380,TA85
S0013,,SUMDIAM,6.2,mm,2380,TA85
S0013,T01,LDIAM,2.6,mm,2408,TA86
S0013,T02,LDIAM,1.7,mm,2408,TA86
S0013,T03,LDIAM,1.9,mm,2408,TA86
S0013,,SUMDIAM,6.2,mm,2408,TA86
S0013,T01,LDIAM,2.6,mm,2436,TA87
S0013,T02,LDIAM,1.7,mm,2436,TA87
S0013,T03,LDIAM,1.9,mm,2436,TA87
S0013,,SUMDIAM,6.2,mm,2436,TA87
S0013,T01,LDIAM,2.6,mm,2464,TA88
S0013,T02,LDIAM,1.7,mm,2464,TA88
S0013,T03,LDIAM,1.9,mm,2464,TA88
S0013,,SUMDIAM,6.2,mm,2464,TA88
S0013,T01,LDIAM,2.6,mm,2492,TA89
S0013,T02,LDIAM,1.7,mm,2492,TA89
S0013,T03,LDIAM,1.9,mm,2492,TA89
S0013,,SUMDIAM,6.2,mm,2492,TA89
S0013,T01,LDIAM,2.6,mm,2520,TA90
S0013,T02,LDIAM,1.7,mm,2520,TA90
S0013,T03,LDIAM,1.9,mm,2520,TA90
S0013,,SUMDIAM,6.2,mm,2520,TA90
S0013,T01,LDIAM,2.6,mm,2548,TA91
S0013,T02,LDIAM,1.7,mm,2548,TA91
S0013,T03,LDIAM,1.9,mm,2548,TA91
S0013,,SUMDIAM,6.2,mm,2548,TA91
S0013,T01,LDIAM,2.6,mm,2576,TA92
S0013,T02,LDIAM,1.7,mm,2576,TA92
S0013,T03,LDIAM,1.9,mm,2576,TA92
S0013,,SUMDIAM,6.2,mm,2576,TA92
S0013,T01,LDIAM,2.6,mm,2604,TA93
S0013,T02,LDIAM,1.7,mm,2604,TA93
S0013,T03,LDIAM,1.9,mm,2604,TA93
S0013,,SUMDIAM,6.2,mm,2604,TA93
S0013,T01,LDIAM,2.6,mm,2632,TA94
S0013,T02,LDIAM,1.7,mm,2632,TA94
S0013,T03,LDIAM,1.9,mm,2632,TA94
S0013,,SUMDIAM,6.2,mm,2632,TA94
S0013,T01,LDIAM,2.6,mm,2660,TA95
S0013,T02,LDIAM,1.7,mm,2660,TA95
S0013,T03,LDIAM,1.9,mm,2660,TA95
S0013,,SUMDIAM,6.2,mm,2660,TA95
S0013,T01,LDIAM,2.6,mm,2688,TA96
S0013,T02,LDIAM,1.7,mm,2688,TA96
S0013,T03,LDIAM,1.9,mm,2688,TA96
S0013,,SUMDIAM,6.2,mm,2688,TA96
S0013,T01,LDIAM,2.6,mm,2716,TA97
S0013,T02,LDIAM,1.7,mm,2716,TA97
S0013,T03,LDIAM,1.9,mm,2716,TA97
S0013,,SUMDIAM,6.2,mm,2716,TA97
S0013,T01,LDIAM,2.6,mm,2744,TA98
S0013,T02,LDIAM,1.7,mm,2744,TA98
S0013,T03,LDIAM,1.9,mm,2744,TA98
S0013,,SUMDIAM,6.2,mm,2744,TA98
S0013,T01,LDIAM,2.6,mm,2772,TA99
S0013,T02,LDIAM,1.7,mm,2772,TA99
S0013,T03,LDIAM,1.9,mm,2772,TA99
S0013,,SUMDIAM,6.2,mm,2772,TA99
S0013,T01,LDIAM,2.6,mm,2800,TA100
S0013,T02,LDIAM,1.7,mm,2800,TA100
S0013,T03,LDIAM,1.9,mm,2800,TA100
S0013,,SUMDIAM,6.2,mm,2800,TA100
S0013,T01,LDIAM,2.6,mm,2828,TA101
S0013,T02,LDIAM,1.7,mm,2828,TA101
S0013,T03,LDIAM,1.9,mm,2828,TA101
S0013,,SUMDIAM,6.2,mm,2828,TA101
S0013,T01,LDIAM,2.6,mm,2856,TA102
S0013,T02,LDIAM,1.7,mm,2856,TA102
S0013,T03,LDIAM,1.9,mm,2856,TA102
S0013,,SUMDIAM,6.2,mm,2856,TA102
S0013,T01,LDIAM,2.6,mm,2884,TA103
S0013,T02,LDIAM,1.7,mm,2884,TA103
S0013,T03,LDIAM,1.9,mm,2884,TA103
S0013,,SUMDIAM,6.2,mm,2884,TA103
S0013,T01,LDIAM,2.6,mm,2912,TA104
S0013,T02,LDIAM,1.7,mm,2912,TA104
S0013,T03,LDIAM,1.9,mm,2912,TA104
S0013,,SUMDIAM,6.2,mm,2912,TA104
S0013,T01,LDIAM,2.6,mm,2940,TA105
S0013,T02,LDIAM,1.7,mm,2940,TA105
S0013,T03,LDIAM,1.9,mm,2940,TA105
S0013,,SUMDIAM,6.2,mm,2940,TA105
S0013,T01,LDIAM,2.6,mm,2968,TA106
S0013,T02,LDIAM,1.7,mm,2968,TA106
S0013,T03,LDIAM,1.9,mm,2968,TA106
S0013,,SUMDIAM,6.2,mm,2968,TA106
S0013,T01,LDIAM,2.6,mm,2996,TA107
S0013,T02,LDIAM,1.7,mm,2996,TA107
S0013,T03,LDIAM,1.9,mm,2996,TA107
S0013,,SUMDIAM,6.2,mm,2996,TA107
S0013,T01,LDIAM,2.6,mm,3024,TA108
S0013,T02,LDIAM,1.7,mm,3024,TA108
S0013,T03,LDIAM,1.9,mm,3024,TA108
S0013,,SUMDIAM,6.2,mm,3024,TA108
S0013,T01,LDIAM,2.6,mm,3052,TA109
S0013,T02,LDIAM,1.7,mm,3052,TA109
S0013,T03,LDIAM,1.9,mm,3052,TA109
S0013,,SUMDIAM,6.2,mm,3052,TA109
S0013,T01,LDIAM,2.6,mm,3080,TA110
S0013,T02,LDIAM,1.7,mm,3080,TA110
S0013,T03,LDIAM,1.9,mm,3080,TA110
S0013,,SUMDIAM,6.2,mm,3080,TA110
S0013,T01,LDIAM,2.6,mm,3108,TA111
S0013,T02,LDIAM,1.7,mm,3108,TA111
S0013,T03,LDIAM,1.9,mm,3108,TA111
S0013,,SUMDIAM,6.2,mm,3108,TA111
S0013,T01,LDIAM,2.6,mm,3136,TA112
S0013,T02,LDIAM,1.7,mm,3136,TA112
S0013,T03,LDIAM,1.9,mm,3136,TA112
S0013,,SUMDIAM,6.2,mm,3136,TA112
S0013,T01,LDIAM,2.6,mm,3164,TA113
S0013,T02,LDIAM,1.7,mm,3164,TA113
S0013,T03,LDIAM,1.9,mm,3164,TA113
S0013,,SUMDIAM,6.2,mm,3164,TA113
S0013,T01,LDIAM,2.6,mm,3192,TA114
S0013,T02,LDIAM,1.7,mm,3192,TA114
S0013,T03,LDIAM,1.9,mm,3192,TA114
S0013,,SUMDIAM,6.2,mm,3192,TA114
S0013,T01,LDIAM,2.6,mm,3220,TA115
S0013,T02,LDIAM,1.7,mm,3220,TA115
S0013,T03,LDIAM,1.9,mm,3220,TA115
S0013,,SUMDIAM,6.2,mm,3220,TA115
S0013,T01,LDIAM,2.6,mm,3248,TA116
S0013,T02,LDIAM,1.7,mm,3248,TA116
S0013,T03,LDIAM,1.9,mm,3248,TA116
S0013,,SUMDIAM,6.2,mm,3248,TA116
S0013,T01,LDIAM,2.6,mm,3276,TA117
S0013,T02,LDIAM,1.7,mm,3276,TA117
S0013,T03,LDIAM,1.9,mm,3276,TA117
S0013,,SUMDIAM,6.2,mm,3276,TA117
S0013,T01,LDIAM,2.6,mm,3304,TA118
S0013,T02,LDIAM,1.7,mm,3304,TA118
S0013,T03,LDIAM,1.9,mm,3304,TA118
S0013,,SUMDIAM,6.2,mm,3304,TA118
S0013,T01,LDIAM,2.6,mm,3332,TA119
S0013,T02,LDIAM,1.7,mm,3332,TA119
S0013,T03,LDIAM,1.9,mm,3332,TA119
S0013,,SUMDIAM,6.2,mm,3332,TA119
S0013,T01,LDIAM,2.6,mm,3360,TA120
S0013,T02,LDIAM,1.7,mm,3360,TA120
S0013,T03,LDIAM,1.9,mm,3360,TA120
S0013,,SUMDIAM,6.2,mm,3360,TA120
S0013,T01,LDIAM,2.6,mm,3388,TA121
S0013,T02,LDIAM,1.7,mm,3388,TA121
S0013,T03,LDIAM,1.9,mm,3388,TA121
S0013,,SUMDIAM,6.2,mm,3388,TA121
S0013,T01,LDIAM,2.6,mm,3416,TA122
S0013,T02,LDIAM,1.7,mm,3416,TA122
S0013,T03,LDIAM,1.9,mm,3416,TA122
S0013,,SUMDIAM,6.2,mm,3416,TA122
S0013,T01,LDIAM,2.6,mm,3444,TA123
S0013,T02,LDIAM,1.7,mm,3444,TA123
S0013,T03,LDIAM,1.9,mm,3444,TA123
S0013,,SUMDIAM,6.2,mm,3444,TA123
S0013,T01,LDIAM,2.6,mm,3472,TA124
S0013,T02,LDIAM,1.7,mm,3472,TA124
S0013,T03,LDIAM,1.9,mm,3472,TA124
S0013,,SUMDIAM,6.2,mm,3472,TA124
S0013,T01,LDIAM,2.6,mm,3500,TA125
S0013,T02,LDIAM,1.7,mm,3500,TA125
S0013,T03,LDIAM,1.9,mm,3500,TA125
S0013,,SUMDIAM,6.2,mm,3500,TA125
S0013,T01,LDIAM,2.6,mm,3528,TA126
S0013,T02,LDIAM,1.7,mm,3528,TA126
S0013,T03,LDIAM,1.9,mm,3528,TA126
S0013,,SUMDIAM,6.2,mm,3528,TA126
S0013,T01,LDIAM,2.6,mm,3556,TA127
S0013,T02,LDIAM,1.7,mm,3556,TA127
S0013,T03,LDIAM,1.9,mm,3556,TA127
S0013,,SUMDIAM,6.2,mm,3556,TA127
S0013,T01,LDIAM,2.6,mm,3584,TA128
S0013,T02,LDIAM,1.7,mm,3584,TA128
S0013,T03,LDIAM,1.9,mm,3584,TA128
S0013,,SUMDIAM,6.2,mm,3584,TA128
S0013,T01,LDIAM,2.6,mm,3612,TA129
S0013,T02,LDIAM,1.7,mm,3612,TA129
S0013,T03,LDIAM,1.9,mm,3612,TA129
S0013,,SUMDIAM,6.2,mm,3612,TA129
S0013,T01,LDIAM,2.6,mm,3640,TA130
S0013,T02,LDIAM,1.7,mm,3640,TA130
S0013,T03,LDIAM,1.9,mm,3640,TA130
S0013,,SUMDIAM,6.2,mm,3640,TA130
S0013,T01,LDIAM,2.6,mm,3668,TA131
S0013,T02,LDIAM,1.7,mm,3668,TA131
S0013,T03,LDIAM,1.9,mm,3668,TA131
S0013,,SUMDIAM,6.2,mm,3668,TA131
S0013,T01,LDIAM,2.6,mm,3696,TA132
S0013,T02,LDIAM,1.7,mm,3696,TA132
S0013,T03,LDIAM,1.9,mm,3696,TA132
S0013,,SUMDIAM,6.2,mm,3696,TA132
S0013,T01,LDIAM,2.6,mm,3724,TA133
S0013,T02,LDIAM,1.7,mm,3724,TA133
S0013,T03,LDIAM,1.9,mm,3724,TA133
S0013,,SUMDIAM,6.2,mm,3724,TA133
S0013,T01,LDIAM,2.6,mm,3752,TA134
S0013,T02,LDIAM,1.7,mm,3752,TA134
S0013,T03,LDIAM,1.9,mm,3752,TA134
S0013,,SUMDIAM,6.2,mm,3752,TA134
S0013,T01,LDIAM,2.6,mm,3780,TA135
S0013,T02,LDIAM,1.7,mm,3780,TA135
S0013,T03,LDIAM,1.9,mm,3780,TA135
S0013,,SUMDIAM,6.2,mm,3780,TA135
S0013,T01,LDIAM,2.6,mm,3808,TA136
S0013,T02,LDIAM,1.7,mm,3808,TA136
S0013,T03,LDIAM,1.9,mm,3808,TA136
S0013,,SUMDIAM,6.2,mm,3808,TA136
S0013,T01,LDIAM,2.6,mm,3836,TA137
S0013,T02,LDIAM,1.7,mm,3836,TA137
S0013,T03,LDIAM,1.9,mm,3836,TA137
S0013,,SUMDIAM,6.2,mm,3836,TA137
S0013,T01,LDIAM,2.6,mm,3864,TA138
S0013,T02,LDIAM,1.7,mm,3864,TA138
S0013,T03,LDIAM,1.9,mm,3864,TA138
S0013,,SUMDIAM,6.2,mm,3864,TA138
S0013,T01,LDIAM,2.6,mm,3892,TA139
S0013,T02,LDIAM,1.7,mm,3892,TA139
S0013,T03,LDIAM,1.9,mm,3892,TA139
S0013,,SUMDIAM,6.2,mm,3892,TA139
S0013,T01,LDIAM,2.6,mm,3920,TA140
S0013,T02,LDIAM,1.7,mm,3920,TA140
S0013,T03,LDIAM,1.9,mm,3920,TA140
S0013,,SUMDIAM,6.2,mm,3920,TA140
S0013,T01,LDIAM,2.6,mm,3948,TA141
S0013,T02,LDIAM,1.7,mm,3948,TA141
S0013,T03,LDIAM,1.9,mm,3948,TA141
S0013,,SUMDIAM,6.2,mm,3948,TA141
S0013,T01,LDIAM,2.6,mm,3976,TA142
S0013,T02,LDIAM,1.7,mm,3976,TA142
S0013,T03,LDIAM,1.9,mm,3976,TA142
S0013,,SUMDIAM,6.2,mm,3976,TA142
S0013,T01,LDIAM,2.6,mm,4004,TA143
S0013,T02,LDIAM,1.7,mm,4004,TA143
S0013,T03,LDIAM,1.9,mm,4004,TA143
S0013,,SUMDIAM,6.2,mm,4004,TA143
S0013,T01,LDIAM,2.6,mm,4032,TA144
S0013,T02,LDIAM,1.7,mm,4032,TA144
S0013,T03,LDIAM,1.9,mm,4032,TA144
S0013,,SUMDIAM,6.2,mm,4032,TA144
S0014,T01,LDIAM,42.8,mm,0,BASELINE
S0014,T02,LDIAM,19.5,mm,0,BASELINE
S0014,T03,LDIAM,12.7,mm,0,BASELINE
S0014,T04,LDIAM,55.1,mm,0,BASELINE
S0014,T05,LDIAM,29.4,mm,0,BASELINE
S0014,,SUMDIAM,159.5,mm,0,BASELINE
S0015,T01,LDIAM,18.2,mm,0,BASELINE
S0015,T02,LDIAM,15.7,mm,0,BASELINE
S0015,T03,LDIAM,52.0,mm,0,BASELINE
S0015,,SUMDIAM,85.9,mm,0,BASELINE
S0015,T01,LDIAM,13.1,mm,28,TA1
S0015,T02,LDIAM,11.3,mm,28,TA1
S0015,T03,LDIAM,37.5,mm,28,TA1
S0015,,SUMDIAM,62.0,mm,28,TA1
S0016,T01,LDIAM,59.5,mm,0,BASELINE
S0016,T02,LDIAM,45.6,mm,0,BASELINE
S0016,T03,LDIAM,11.0,mm,0,BASELINE
S0016,,SUMDIAM,116.1,mm,0,BASELINE
S0016,T01,LDIAM,43.6,mm,28,TA1
S0016,T02,LDIAM,33.4,mm,28,TA1
S0016,T03,LDIAM,8.1,mm,28,TA1
S0016,,SUMDIAM,85.0,mm,28,TA1
S0016,T01,LDIAM,27.6,mm,56,TA2
S0016,T02,LDIAM,21.2,mm,56,TA2
S0016,T03,LDIAM,5.1,mm,56,TA2
S0016,,SUMDIAM,53.9,mm,56,TA2
S0016,T01,LDIAM,27.6,mm,84,TA3
S0016,T02,LDIAM,21.2,mm,84,TA3
S0016,T03,LDIAM,5.1,mm,84,TA3
S0016,,SUMDIAM,53.9,mm,84,TA3
S0016,T01,LDIAM,27.6,mm,112,TA4
S0016,T02,LDIAM,21.2,mm,112,TA4
S0016,T03,LDIAM,5.1,mm,112,TA4
S0016,,SUMDIAM,53.9,mm,112,TA4
S0016,T01,LDIAM,27.6,mm,140,TA5
S0016,T02,LDIAM,21.2,mm,140,TA5
S0016,T03,LDIAM,5.1,mm,140,TA5
S0016,,SUMDIAM,53.9,mm,140,TA5
S0018,T01,LDIAM,52.6,mm,0,BASELINE
S0018,T02,LDIAM,54.1,mm,0,BASELINE
S0018,T03,LDIAM,48.0,mm,0,BASELINE
S0018,T04,LDIAM,58.4,mm,0,BASELINE
S0018,,SUMDIAM,213.1,mm,0,BASELINE
S0018,T01,LDIAM,26.3,mm,28,TA1
S0018,T02,LDIAM,27.1,mm,28,TA1
S0018,T03,LDIAM,24.0,mm,28,TA1
S0018,T04,LDIAM,29.2,mm,28,TA1
S0018,,SUMDIAM,106.5,mm,28,TA1
S0018,T01,LDIAM,0.0,mm,56,TA2
S0018,T02,LDIAM,0.0,mm,56,TA2
S0018,T03,LDIAM,0.0,mm,56,TA2
S0018,T04,LDIAM,0.0,mm,56,TA2
S0018,,SUMDIAM,0.0,mm,56,TA2
S0018,T01,LDIAM,0.0,mm,84,TA3
S0018,T02,LDIAM,0.0,mm,84,TA3
S0018,T03,LDIAM,0.0,mm,84,TA3
S0018,T04,LDIAM,0.0,mm,84,TA3
S0018,,SUMDIAM,0.0,mm,84,TA3
S0018,T01,LDIAM,0.0,mm,112,TA4
S0018,T02,LDIAM,0.0,mm,112,TA4
S0018,T03,LDIAM,0.0,mm,112,TA4
S0018,T04,LDIAM,0.0,mm,112,TA4
S0018,,SUMDIAM,0.0,mm,112,TA4
S0018,T01,LDIAM,0.0,mm,140,TA5
S0018,T02,LDIAM,0.0,mm,140,TA5
S0018,T03,LDIAM,0.0,mm,140,TA5
S0018,T04,LDIAM,0.0,mm,140,TA5
S0018,,SUMDIAM,0.0,mm,140,TA5
S0018,T01,LDIAM,0.0,mm,168,TA6
S0018,T02,LDIAM,0.0,mm,168,TA6
S0018,T03,LDIAM,0.0,mm,168,TA6
S0018,T04,LDIAM,0.0,mm,168,TA6
S0018,,SUMDIAM,0.0,mm,168,TA6
S0018,T01,LDIAM,0.0,mm,196,TA7
S0018,T02,LDIAM,0.0,mm,196,TA7
S0018,T03,LDIAM,0.0,mm,196,TA7
S0018,T04,LDIAM,0.0,mm,196,TA7
S0018,,SUMDIAM,0.0,mm,196,TA7
S0018,T01,LDIAM,0.0,mm,224,TA8
S0018,T02,LDIAM,0.0,mm,224,TA8
S0018,T03,LDIAM,0.0,mm,224,TA8
S0018,T04,LDIAM,0.0,mm,224,TA8
S0018,,SUMDIAM,0.0,mm,224,TA8
S0018,T01,LDIAM,0.0,mm,252,TA9
S0018,T02,LDIAM,0.0,mm,252,TA9
S0018,T03,LDIAM,0.0,mm,252,TA9
S0018,T04,LDIAM,0.0,mm,252,TA9
S0018,,SUMDIAM,0.0,mm,252,TA9
S0018,T01,LDIAM,0.0,mm,280,TA10
S0018,T02,LDIAM,0.0,mm,280,TA10
S0018,T03,LDIAM,0.0,mm,280,TA10
S0018,T04,LDIAM,0.0,mm,280,TA10
S0018,,SUMDIAM,0.0,mm,280,TA10
S0018,T01,LDIAM,0.0,mm,308,TA11
S0018,T02,LDIAM,0.0,mm,308,TA11
S0018,T03,LDIAM,0.0,mm,308,TA11
S0018,T04,LDIAM,0.0,mm,308,TA11
S0018,,SUMDIAM,0.0,mm,308,TA11
S0018,T01,LDIAM,0.0,mm,336,TA12
S0018,T02,LDIAM,0.0,mm,336,TA12
S0018,T03,LDIAM,0.0,mm,336,TA12
S0018,T04,LDIAM,0.0,mm,336,TA12
S0018,,SUMDIAM,0.0,mm,336,TA12
S0018,T01,LDIAM,0.0,mm,364,TA13
S0018,T02,LDIAM,0.0,mm,364,TA13
S0018,T03,LDIAM,0.0,mm,364,TA13
S0018,T04,LDIAM,0.0,mm,364,TA13
S0018,,SUMDIAM,0.0,mm,364,TA13
S0018,T01,LDIAM,0.0,mm,392,TA14
S0018,T02,LDIAM,0.0,mm,392,TA14
S0018,T03,LDIAM,0.0,mm,392,TA14
S0018,T04,LDIAM,0.0,mm,392,TA14
S0018,,SUMDIAM,0.0,mm,392,TA14
S0018,T01,LDIAM,0.0,mm,420,TA15
S0018,T02,LDIAM,0.0,mm,420,TA15
S0018,T03,LDIAM,0.0,mm,420,TA15
S0018,T04,LDIAM,0.0,mm,420,TA15
S0018,,SUMDIAM,0.0,mm,420,TA15
S0018,T01,LDIAM,0.0,mm,448,TA16
S0018,T02,LDIAM,0.0,mm,448,TA16
S0018,T03,LDIAM,0.0,mm,448,TA16
S0018,T04,LDIAM,0.0,mm,448,TA16
S0018,,SUMDIAM,0.0,mm,448,TA16
S0018,T01,LDIAM,0.0,mm,476,TA17
S0018,T02,LDIAM,0.0,mm,476,TA17
S0018,T03,LDIAM,0.0,mm,476,TA17
S0018,T04,LDIAM,0.0,mm,476,TA17
S0018,,SUMDIAM,0.0,mm,476,TA17
S0018,T01,LDIAM,0.0,mm,504,TA18
S0018,T02,LDIAM,0.0,mm,504,TA18
S0018,T03,LDIAM,0.0,mm,504,TA18
S0018,T04,LDIAM,0.0,mm,504,TA18
S0018,,SUMDIAM,0.0,mm,504,TA18
S0018,T01,LDIAM,0.0,mm,532,TA19
S0018,T02,LDIAM,0.0,mm,532,TA19
S0018,T03,LDIAM,0.0,mm,532,TA19
S0018,T04,LDIAM,0.0,mm,532,TA19
S0018,,SUMDIAM,0.0,mm,532,TA19
S0018,T01,LDIAM,0.0,mm,560,TA20
S0018,T02,LDIAM,0.0,mm,560,TA20
S0018,T03,LDIAM,0.0,mm,560,TA20
S0018,T04,LDIAM,0.0,mm,560,TA20
S0018,,SUMDIAM,0.0,mm,560,TA20
S0018,T01,LDIAM,0.0,mm,588,TA21
S0018,T02,LDIAM,0.0,mm,588,TA21
S0018,T03,LDIAM,0.0,mm,588,TA21
S0018,T04,LDIAM,0.0,mm,588,TA21
S0018,,SUMDIAM,0.0,mm,588,TA21
S0018,T01,LDIAM,0.0,mm,616,TA22
S0018,T02,LDIAM,0.0,mm,616,TA22
S0018,T03,LDIAM,0.0,mm,616,TA22
S0018,T04,LDIAM,0.0,mm,616,TA22
S0018,,SUMDIAM,0.0,mm,616,TA22
S0018,T01,LDIAM,0.0,mm,644,TA23
S0018,T02,LDIAM,0.0,mm,644,TA23
S0018,T03,LDIAM,0.0,mm,644,TA23
S0018,T04,LDIAM,0.0,mm,644,TA23
S0018,,SUMDIAM,0.0,mm,644,TA23
S0018,T01,LDIAM,0.0,mm,672,TA24
S0018,T02,LDIAM,0.0,mm,672,TA24
S0018,T03,LDIAM,0.0,mm,672,TA24
S0018,T04,LDIAM,0.0,mm,672,TA24
S0018,,SUMDIAM,0.0,mm,672,TA24
S0018,T01,LDIAM,0.0,mm,700,TA25
S0018,T02,LDIAM,0.0,mm,700,TA25
S0018,T03,LDIAM,0.0,mm,700,TA25
S0018,T04,LDIAM,0.0,mm,700,TA25
S0018,,SUMDIAM,0.0,mm,700,TA25
S0018,T01,LDIAM,0.0,mm,728,TA26
S0018,T02,LDIAM,0.0,mm,728,TA26
S0018,T03,LDIAM,0.0,mm,728,TA26
S0018,T04,LDIAM,0.0,mm,728,TA26
S0018,,SUMDIAM,0.0,mm,728,TA26
S0018,T01,LDIAM,0.0,mm,756,TA27
S0018,T02,LDIAM,0.0,mm,756,TA27
S0018,T03,LDIAM,0.0,mm,756,TA27
S0018,T04,LDIAM,0.0,mm,756,TA27
S0018,,SUMDIAM,0.0,mm,756,TA27
S0018,T01,LDIAM,0.0,mm,784,TA28
S0018,T02,LDIAM,0.0,mm,784,TA28
S0018,T03,LDIAM,0.0,mm,784,TA28
S0018,T04,LDIAM,0.0,mm,784,TA28
S0018,,SUMDIAM,0.0,mm,784,TA28
S0018,T01,LDIAM,0.0,mm,812,TA29
S0018,T02,LDIAM,0.0,mm,812,TA29
S0018,T03,LDIAM,0.0,mm,812,TA29
S0018,T04,LDIAM,0.0,mm,812,TA29
S0018,,SUMDIAM,0.0,mm,812,TA29
S0018,T01,LDIAM,0.0,mm,840,TA30
S0018,T02,LDIAM,0.0,mm,840,TA30
S0018,T03,LDIAM,0.0,mm,840,TA30
S0018,T04,LDIAM,0.0,mm,840,TA30
S0018,,SUMDIAM,0.0,mm,840,TA30
S0018,T01,LDIAM,0.0,mm,868,TA31
S0018,T02,LDIAM,0.0,mm,868,TA31
S0018,T03,LDIAM,0.0,mm,868,TA31
S0018,T04,LDIAM,0.0,mm,868,TA31
S0018,,SUMDIAM,0.0,mm,868,TA31
S0018,T01,LDIAM,0.0,mm,896,TA32
S0018,T02,LDIAM,0.0,mm,896,TA32
S0018,T03,LDIAM,0.0,mm,896,TA32
S0018,T04,LDIAM,0.0,mm,896,TA32
S0018,,SUMDIAM,0.0,mm,896,TA32
S0018,T01,LDIAM,0.0,mm,924,TA33
S0018,T02,LDIAM,0.0,mm,924,TA33
S0018,T03,LDIAM,0.0,mm,924,TA33
S0018,T04,LDIAM,0.0,mm,924,TA33
S0018,,SUMDIAM,0.0,mm,924,TA33
S0018,T01,LDIAM,0.0,mm,952,TA34
S0018,T02,LDIAM,0.0,mm,952,TA34
S0018,T03,LDIAM,0.0,mm,952,TA34
S0018,T04,LDIAM,0.0,mm,952,TA34
S0018,,SUMDIAM,0.0,mm,952,TA34
S0018,T01,LDIAM,0.0,mm,980,TA35
S0018,T02,LDIAM,0.0,mm,980,TA35
S0018,T03,LDIAM,0.0,mm,980,TA35
S0018,T04,LDIAM,0.0,mm,980,TA35
S0018,,SUMDIAM,0.0,mm,980,TA35
S0018,T01,LDIAM,0.0,mm,1008,TA36
S0018,T02,LDIAM,0.0,mm,1008,TA36
S0018,T03,LDIAM,0.0,mm,1008,TA36
S0018,T04,LDIAM,0.0,mm,1008,TA36
S0018,,SUMDIAM,0.0,mm,1008,TA36
S0018,T01,LDIAM,0.0,mm,1036,TA37
S0018,T02,LDIAM,0.0,mm,1036,TA37
S0018,T03,LDIAM,0.0,mm,1036,TA37
S0018,T04,LDIAM,0.0,mm,1036,TA37
S0018,,SUMDIAM,0.0,mm,1036,TA37
S0018,T01,LDIAM,0.0,mm,1064,TA38
S0018,T02,LDIAM,0.0,mm,1064,TA38
S0018,T03,LDIAM,0.0,mm,1064,TA38
S0018,T04,LDIAM,0.0,mm,1064,TA38
S0018,,SUMDIAM,0.0,mm,1064,TA38
S0018,T01,LDIAM,0.0,mm,1092,TA39
S0018,T02,LDIAM,0.0,mm,1092,TA39
S0018,T03,LDIAM,0.0,mm,1092,TA39
S0018,T04,LDIAM,0.0,mm,1092,TA39
S0018,,SUMDIAM,0.0,mm,1092,TA39
S0018,T01,LDIAM,0.0,mm,1120,TA40
S0018,T02,LDIAM,0.0,mm,1120,TA40
S0018,T03,LDIAM,0.0,mm,1120,TA40
S0018,T04,LDIAM,0.0,mm,1120,TA40
S0018,,SUMDIAM,0.0,mm,1120,TA40
S0018,T01,LDIAM,0.0,mm,1148,TA41
S0018,T02,LDIAM,0.0,mm,1148,TA41
S0018,T03,LDIAM,0.0,mm,1148,TA41
S0018,T04,LDIAM,0.0,mm,1148,TA41
S0018,,SUMDIAM,0.0,mm,1148,TA41
S0018,T01,LDIAM,0.0,mm,1176,TA42
S0018,T02,LDIAM,0.0,mm,1176,TA42
S0018,T03,LDIAM,0.0,mm,1176,TA42
S0018,T04,LDIAM,0.0,mm,1176,TA42
S0018,,SUMDIAM,0.0,mm,1176,TA42
S0018,T01,LDIAM,0.0,mm,1204,TA43
S0018,T02,LDIAM,0.0,mm,1204,TA43
S0018,T03,LDIAM,0.0,mm,1204,TA43
S0018,T04,LDIAM,0.0,mm,1204,TA43
S0018,,SUMDIAM,0.0,mm,1204,TA43
S0018,T01,LDIAM,0.0,mm,1232,TA44
S0018,T02,LDIAM,0.0,mm,1232,TA44
S0018,T03,LDIAM,0.0,mm,1232,TA44
S0018,T04,LDIAM,0.0,mm,1232,TA44
S0018,,SUMDIAM,0.0,mm,1232,TA44
S0018,T01,LDIAM,0.0,mm,1260,TA45
S0018,T02,LDIAM,0.0,mm,1260,TA45
S0018,T03,LDIAM,0.0,mm,1260,TA45
S0018,T04,LDIAM,0.0,mm,1260,TA45
S0018,,SUMDIAM,0.0,mm,1260,TA45
S0018,T01,LDIAM,2.6,mm,1288,TA46
S0018,T02,LDIAM,2.7,mm,1288,TA46
S0018,T03,LDIAM,2.4,mm,1288,TA46
S0018,T04,LDIAM,2.9,mm,1288,TA46
S0018,,SUMDIAM,10.7,mm,1288,TA46
S0018,T01,LDIAM,2.6,mm,1316,TA47
S0018,T02,LDIAM,2.7,mm,1316,TA47
S0018,T03,LDIAM,2.4,mm,1316,TA47
S0018,T04,LDIAM,2.9,mm,1316,TA47
S0018,,SUMDIAM,10.7,mm,1316,TA47
S0018,T01,LDIAM,2.6,mm,1344,TA48
S0018,T02,LDIAM,2.7,mm,1344,TA48
S0018,T03,LDIAM,2.4,mm,1344,TA48
S0018,T04,LDIAM,2.9,mm,1344,TA48
S0018,,SUMDIAM,10.7,mm,1344,TA48
S0018,T01,LDIAM,2.6,mm,1372,TA49
S0018,T02,LDIAM,2.7,mm,1372,TA49
S0018,T03,LDIAM,2.4,mm,1372,TA49
S0018,T04,LDIAM,2.9,mm,1372,TA49
S0018,,SUMDIAM,10.7,mm,1372,TA49
S0018,T01,LDIAM,2.6,mm,1400,TA50
S0018,T02,LDIAM,2.7,mm,1400,TA50
S0018,T03,LDIAM,2.4,mm,1400,TA50
S0018,T04,LDIAM,2.9,mm,1400,TA50
S0018,,SUMDIAM,10.7,mm,1400,TA50
S0018,T01,LDIAM,2.6,mm,1428,TA51
S0018,T02,LDIAM,2.7,mm,1428,TA51
S0018,T03,LDIAM,2.4,mm,1428,TA51
S0018,T04,LDIAM,2.9,mm,1428,TA51
S0018,,SUMDIAM,10.7,mm,1428,TA51
S0018,T01,LDIAM,2.6,mm,1456,TA52
S0018,T02,LDIAM,2.7,mm,1456,TA52
S0018,T03,LDIAM,2.4,mm,1456,TA52
S0018,T04,LDIAM,2.9,mm,1456,TA52
S0018,,SUMDIAM,10.7,mm,1456,TA52
S0018,T01,LDIAM,2.6,mm,1484,TA53
S0018,T02,LDIAM,2.7,mm,1484,TA53
S0018,T03,LDIAM,2.4,mm,1484,TA53
S0018,T04,LDIAM,2.9,mm,1484,TA53
S0018,,SUMDIAM,10.7,mm,1484,TA53
S0018,T01,LDIAM,2.6,mm,1512,TA54
S0018,T02,LDIAM,2.7,mm,1512,TA54
S0018,T03,LDIAM,2.4,mm,1512,TA54
S0018,T04,LDIAM,2.9,mm,1512,TA54
S0018,,SUMDIAM,10.7,mm,1512,TA54
S0018,T01,LDIAM,2.6,mm,1540,TA55
S0018,T02,LDIAM,2.7,mm,1540,TA55
S0018,T03,LDIAM,2.4,mm,1540,TA55
S0018,T04,LDIAM,2.9,mm,1540,TA55
S0018,,SUMDIAM,10.7,mm,1540,TA55
S0018,T01,LDIAM,2.6,mm,1568,TA56
S0018,T02,LDIAM,2.7,mm,1568,TA56
S0018,T03,LDIAM,2.4,mm,1568,TA56
S0018,T04,LDIAM,2.9,mm,1568,TA56
S0018,,SUMDIAM,10.7,mm,1568,TA56
S0018,T01,LDIAM,2.6,mm,1596,TA57
S0018,T02,LDIAM,2.7,mm,1596,TA57
S0018,T03,LDIAM,2.4,mm,1596,TA57
S0018,T04,LDIAM,2.9,mm,1596,TA57
S0018,,SUMDIAM,10.7,mm,1596,TA57
S0018,T01,LDIAM,2.6,mm,1624,TA58
S0018,T02,LDIAM,2.7,mm,1624,TA58
S0018,T03,LDIAM,2.4,mm,1624,TA58
S0018,T04,LDIAM,2.9,mm,1624,TA58
S0018,,SUMDIAM,10.7,mm,1624,TA58
S0018,T01,LDIAM,2.6,mm,1652,TA59
S0018,T02,LDIAM,2.7,mm,1652,TA59
S0018,T03,LDIAM,2.4,mm,1652,TA59
S0018,T04,LDIAM,2.9,mm,1652,TA59
S0018,,SUMDIAM,10.7,mm,1652,TA59
S0018,T01,LDIAM,2.6,mm,1680,TA60
S0018,T02,LDIAM,2.7,mm,1680,TA60
S0018,T03,LDIAM,2.4,mm,1680,TA60
S0018,T04,LDIAM,2.9,mm,1680,TA60
S0018,,SUMDIAM,10.7,mm,1680,TA60
S0018,T01,LDIAM,2.6,mm,1708,TA61
S0018,T02,LDIAM,2.7,mm,1708,TA61
S0018,T03,LDIAM,2.4,mm,1708,TA61
S0018,T04,LDIAM,2.9,mm,1708,TA61
S0018,,SUMDIAM,10.7,mm,1708,TA61
S0018,T01,LDIAM,2.6,mm,1736,TA62
S0018,T02,LDIAM,2.7,mm,1736,TA62
S0018,T03,LDIAM,2.4,mm,1736,TA62
S0018,T04,LDIAM,2.9,mm,1736,TA62
S0018,,SUMDIAM,10.7,mm,1736,TA62
S0018,T01,LDIAM,2.6,mm,1764,TA63
S0018,T02,LDIAM,2.7,mm,1764,TA63
S0018,T03,LDIAM,2.4,mm,1764,TA63
S0018,T04,LDIAM,2.9,mm,1764,TA63
S0018,,SUMDIAM,10.7,mm,1764,TA63
S0018,T01,LDIAM,2.6,mm,1792,TA64
S0018,T02,LDIAM,2.7,mm,1792,TA64
S0018,T03,LDIAM,2.4,mm,1792,TA64
S0018,T04,LDIAM,2.9,mm,1792,TA64
S0018,,SUMDIAM,10.7,mm,1792,TA64
S0018,T01,LDIAM,2.6,mm,1820,TA65
S0018,T02,LDIAM,2.7,mm,1820,TA65
S0018,T03,LDIAM,2.4,mm,1820,TA65
S0018,T04,LDIAM,2.9,mm,1820,TA65
S0018,,SUMDIAM,10.7,mm,1820,TA65
S0018,T01,LDIAM,2.6,mm,1848,TA66
S0018,T02,LDIAM,2.7,mm,1848,TA66
S0018,T03,LDIAM,2.4,mm,1848,TA66
S0018,T04,LDIAM,2.9,mm,1848,TA66
S0018,,SUMDIAM,10.7,mm,1848,TA66
S0018,T01,LDIAM,2.6,mm,1876,TA67
S0018,T02,LDIAM,2.7,mm,1876,TA67
S0018,T03,LDIAM,2.4,mm,1876,TA67
S0018,T04,LDIAM,2.9,mm,1876,TA67
S0018,,SUMDIAM,10.7,mm,1876,TA67
S0018,T01,LDIAM,2.6,mm,1904,TA68
S0018,T02,LDIAM,2.7,mm,1904,TA68
S0018,T03,LDIAM,2.4,mm,1904,TA68
S0018,T04,LDIAM,2.9,mm,1904,TA68
S0018,,SUMDIAM,10.7,mm,1904,TA68
S0018,T01,LDIAM,2.6,mm,1932,TA69
S0018,T02,LDIAM,2.7,mm,1932,TA69
S0018,T03,LDIAM,2.4,mm,1932,TA69
S0018,T04,LDIAM,2.9,mm,1932,TA69
S0018,,SUMDIAM,10.7,mm,1932,TA69
S0018,T01,LDIAM,2.6,mm,1960,TA70
S0018,T02,LDIAM,2.7,mm,1960,TA70
S0018,T03,LDIAM,2.4,mm,1960,TA70
S0018,T04,LDIAM,2.9,mm,1960,TA70
S0018,,SUMDIAM,10.7,mm,1960,TA70
S0018,T01,LDIAM,2.6,mm,1988,TA71
S0018,T02,LDIAM,2.7,mm,1988,TA71
S0018,T03,LDIAM,2.4,mm,1988,TA71
S0018,T04,LDIAM,2.9,mm,1988,TA71
S0018,,SUMDIAM,10.7,mm,1988,TA71
S0018,T01,LDIAM,2.6,mm,2016,TA72
S0018,T02,LDIAM,2.7,mm,2016,TA72
S0018,T03,LDIAM,2.4,mm,2016,TA72
S0018,T04,LDIAM,2.9,mm,2016,TA72
S0018,,SUMDIAM,10.7,mm,2016,TA72
S0018,T01,LDIAM,2.6,mm,2044,TA73
S0018,T02,LDIAM,2.7,mm,2044,TA73
S0018,T03,LDIAM,2.4,mm,2044,TA73
S0018,T04,LDIAM,2.9,mm,2044,TA73
S0018,,SUMDIAM,10.7,mm,2044,TA73
S0018,T01,LDIAM,2.6,mm,2072,TA74
S0018,T02,LDIAM,2.7,mm,2072,TA74
S0018,T03,LDIAM,2.4,mm,2072,TA74
S0018,T04,LDIAM,2.9,mm,2072,TA74
S0018,,SUMDIAM,10.7,mm,2072,TA74
S0018,T01,LDIAM,2.6,mm,2100,TA75
S0018,T02,LDIAM,2.7,mm,2100,TA75
S0018,T03,LDIAM,2.4,mm,2100,TA75
S0018,T04,LDIAM,2.9,mm,2100,TA75
S0018,,SUMDIAM,10.7,mm,2100,TA75
S0018,T01,LDIAM,2.6,mm,2128,TA76
S0018,T02,LDIAM,2.7,mm,2128,TA76
S0018,T03,LDIAM,2.4,mm,2128,TA76
S0018,T04,LDIAM,2.9,mm,2128,TA76
S0018,,SUMDIAM,10.7,mm,2128,TA76
S0018,T01,LDIAM,2.6,mm,2156,TA77
S0018,T02,LDIAM,2.7,mm,2156,TA77
S0018,T03,LDIAM,2.4,mm,2156,TA77
S0018,T04,LDIAM,2.9,mm,2156,TA77
S0018,,SUMDIAM,10.7,mm,2156,TA77
S0018,T01,LDIAM,2.6,mm,2184,TA78
S0018,T02,LDIAM,2.7,mm,2184,TA78
S0018,T03,LDIAM,2.4,mm,2184,TA78
S0018,T04,LDIAM,2.9,mm,2184,TA78
S0018,,SUMDIAM,10.7,mm,2184,TA78
S0018,T01,LDIAM,2.6,mm,2212,TA79
S0018,T02,LDIAM,2.7,mm,2212,TA79
S0018,T03,LDIAM,2.4,mm,2212,TA79
S0018,T04,LDIAM,2.9,mm,2212,TA79
S0018,,SUMDIAM,10.7,mm,2212,TA79
S0018,T01,LDIAM,2.6,mm,2240,TA80
S0018,T02,LDIAM,2.7,mm,2240,TA80
S0018,T03,LDIAM,2.4,mm,2240,TA80
S0018,T04,LDIAM,2.9,mm,2240,TA80
S0018,,SUMDIAM,10.7,mm,2240,TA80
S0018,T01,LDIAM,2.6,mm,2268,TA81
S0018,T02,LDIAM,2.7,mm,2268,TA81
S0018,T03,LDIAM,2.4,mm,2268,TA81
S0018,T04,LDIAM,2.9,mm,2268,TA81
S0018,,SUMDIAM,10.7,mm,2268,TA81
S0018,T01,LDIAM,2.6,mm,2296,TA82
S0018,T02,LDIAM,2.7,mm,2296,TA82
S0018,T03,LDIAM,2.4,mm,2296,TA82
S0018,T04,LDIAM,2.9,mm,2296,TA82
S0018,,SUMDIAM,10.7,mm,2296,TA82
S0018,T01,LDIAM,2.6,mm,2324,TA83
S0018,T02,LDIAM,2.7,mm,2324,TA83
S0018,T03,LDIAM,2.4,mm,2324,TA83
S0018,T04,LDIAM,2.9,mm,2324,TA83
S0018,,SUMDIAM,10.7,mm,2324,TA83
S0018,T01,LDIAM,2.6,mm,2352,TA84
S0018,T02,LDIAM,2.7,mm,2352,TA84
S0018,T03,LDIAM,2.4,mm,2352,TA84
S0018,T04,LDIAM,2.9,mm,2352,TA84
S0018,,SUMDIAM,10.7,mm,2352,TA84
S0018,T01,LDIAM,2.6,mm,2380,TA85
S0018,T02,LDIAM,2.7,mm,2380,TA85
S0018,T03,LDIAM,2.4,mm,2380,TA85
S0018,T04,LDIAM,2.9,mm,2380,TA85
S0018,,SUMDIAM,10.7,mm,2380,TA85
S0018,T01,LDIAM,2.6,mm,2408,TA86
S0018,T02,LDIAM,2.7,mm,2408,TA86
S0018,T03,LDIAM,2.4,mm,2408,TA86
S0018,T04,LDIAM,2.9,mm,2408,TA86
S0018,,SUMDIAM,10.7,mm,2408,TA86
S0018,T01,LDIAM,2.6,mm,2436,TA87
S0018,T02,LDIAM,2.7,mm,2436,TA87
S0018,T03,LDIAM,2.4,mm,2436,TA87
S0018,T04,LDIAM,2.9,mm,2436,TA87
S0018,,SUMDIAM,10.7,mm,2436,TA87
S0018,T01,LDIAM,2.6,mm,2464,TA88
S0018,T02,LDIAM,2.7,mm,2464,TA88
S0018,T03,LDIAM,2.4,mm,2464,TA88
S0018,T04,LDIAM,2.9,mm,2464,TA88
S0018,,SUMDIAM,10.7,mm,2464,TA88
S0018,T01,LDIAM,2.6,mm,2492,TA89
S0018,T02,LDIAM,2.7,mm,2492,TA89
S0018,T03,LDIAM,2.4,mm,2492,TA89
S0018,T04,LDIAM,2.9,mm,2492,TA89
S0018,,SUMDIAM,10.7,mm,2492,TA89
S0018,T01,LDIAM,2.6,mm,2520,TA90
S0018,T02,LDIAM,2.7,mm,2520,TA90
S0018,T03,LDIAM,2.4,mm,2520,TA90
S0018,T04,LDIAM,2.9,mm,2520,TA90
S0018,,SUMDIAM,10.7,mm,2520,TA90
S0018,T01,LDIAM,2.6,mm,2548,TA91
S0018,T02,LDIAM,2.7,mm,2548,TA91
S0018,T03,LDIAM,2.4,mm,2548,TA91
S0018,T04,LDIAM,2.9,mm,2548,TA91
S0018,,SUMDIAM,10.7,mm,2548,TA91
S0018,T01,LDIAM,2.6,mm,2576,TA92
S0018,T02,LDIAM,2.7,mm,2576,TA92
S0018,T03,LDIAM,2.4,mm,2576,TA92
S0018,T04,LDIAM,2.9,mm,2576,TA92
S0018,,SUMDIAM,10.7,mm,2576,TA92
S0018,T01,LDIAM,2.6,mm,2604,TA93
S0018,T02,LDIAM,2.7,mm,2604,TA93
S0018,T03,LDIAM,2.4,mm,2604,TA93
S0018,T04,LDIAM,2.9,mm,2604,TA93
S0018,,SUMDIAM,10.7,mm,2604,TA93
S0018,T01,LDIAM,2.6,mm,2632,TA94
S0018,T02,LDIAM,2.7,mm,2632,TA94
S0018,T03,LDIAM,2.4,mm,2632,TA94
S0018,T04,LDIAM,2.9,mm,2632,TA94
S0018,,SUMDIAM,10.7,mm,2632,TA94
S0018,T01,LDIAM,2.6,mm,2660,TA95
S0018,T02,LDIAM,2.7,mm,2660,TA95
S0018,T03,LDIAM,2.4,mm,2660,TA95
S0018,T04,LDIAM,2.9,mm,2660,TA95
S0018,,SUMDIAM,10.7,mm,2660,TA95
S0018,T01,LDIAM,2.6,mm,2688,TA96
S0018,T02,LDIAM,2.7,mm,2688,TA96
S0018,T03,LDIAM,2.4,mm,2688,TA96
S0018,T04,LDIAM,2.9,mm,2688,TA96
S0018,,SUMDIAM,10.7,mm,2688,TA96
S0018,T01,LDIAM,2.6,mm,2716,TA97
S0018,T02,LDIAM,2.7,mm,2716,TA97
S0018,T03,LDIAM,2.4,mm,2716,TA97
S0018,T04,LDIAM,2.9,mm,2716,TA97
S0018,,SUMDIAM,10.7,mm,2716,TA97
S0018,T01,LDIAM,2.6,mm,2744,TA98
S0018,T02,LDIAM,2.7,mm,2744,TA98
S0018,T03,LDIAM,2.4,mm,2744,TA98
S0018,T04,LDIAM,2.9,mm,2744,TA98
S0018,,SUMDIAM,10.7,mm,2744,TA98
S0018,T01,LDIAM,2.6,mm,2772,TA99
S0018,T02,LDIAM,2.7,mm,2772,TA99
S0018,T03,LDIAM,2.4,mm,2772,TA99
S0018,T04,LDIAM,2.9,mm,2772,TA99
S0018,,SUMDIAM,10.7,mm,2772,TA99
S0018,T01,LDIAM,2.6,mm,2800,TA100
S0018,T02,LDIAM,2.7,mm,2800,TA100
S0018,T03,LDIAM,2.4,mm,2800,TA100
S0018,T04,LDIAM,2.9,mm,2800,TA100
S0018,,SUMDIAM,10.7,mm,2800,TA100
S0018,T01,LDIAM,2.6,mm,2828,TA101
S0018,T02,LDIAM,2.7,mm,2828,TA101
S0018,T03,LDIAM,2.4,mm,2828,TA101
S0018,T04,LDIAM,2.9,mm,2828,TA101
S0018,,SUMDIAM,10.7,mm,2828,TA101
S0018,T01,LDIAM,2.6,mm,2856,TA102
S0018,T02,LDIAM,2.7,mm,2856,TA102
S0018,T03,LDIAM,2.4,mm,2856,TA102
S0018,T04,LDIAM,2.9,mm,2856,TA102
S0018,,SUMDIAM,10.7,mm,2856,TA102
S0018,T01,LDIAM,2.6,mm,2884,TA103
S0018,T02,LDIAM,2.7,mm,2884,TA103
S0018,T03,LDIAM,2.4,mm,2884,TA103
S0018,T04,LDIAM,2.9,mm,2884,TA103
S0018,,SUMDIAM,10.7,mm,2884,TA103
S0018,T01,LDIAM,2.6,mm,2912,TA104
S0018,T02,LDIAM,2.7,mm,2912,TA104
S0018,T03,LDIAM,2.4,mm,2912,TA104
S0018,T04,LDIAM,2.9,mm,2912,TA104
S0018,,SUMDIAM,10.7,mm,2912,TA104
S0018,T01,LDIAM,2.6,mm,2940,TA105
S0018,T02,LDIAM,2.7,mm,2940,TA105
S0018,T03,LDIAM,2.4,mm,2940,TA105
S0018,T04,LDIAM,2.9,mm,2940,TA105
S0018,,SUMDIAM,10.7,mm,2940,TA105
S0018,T01,LDIAM,2.6,mm,2968,TA106
S0018,T02,LDIAM,2.7,mm,2968,TA106
S0018,T03,LDIAM,2.4,mm,2968,TA106
S0018,T04,LDIAM,2.9,mm,2968,TA106
S0018,,SUMDIAM,10.7,mm,2968,TA106
S0018,T01,LDIAM,2.6,mm,2996,TA107
S0018,T02,LDIAM,2.7,mm,2996,TA107
S0018,T03,LDIAM,2.4,mm,2996,TA107
S0018,T04,LDIAM,2.9,mm,2996,TA107
S0018,,SUMDIAM,10.7,mm,2996,TA107
S0018,T01,LDIAM,2.6,mm,3024,TA108
S0018,T02,LDIAM,2.7,mm,3024,TA108
S0018,T03,LDIAM,2.4,mm,3024,TA108
S0018,T04,LDIAM,2.9,mm,3024,TA108
S0018,,SUMDIAM,10.7,mm,3024,TA108
S0018,T01,LDIAM,2.6,mm,3052,TA109
S0018,T02,LDIAM,2.7,mm,3052,TA109
S0018,T03,LDIAM,2.4,mm,3052,TA109
S0018,T04,LDIAM,2.9,mm,3052,TA109
S0018,,SUMDIAM,10.7,mm,3052,TA109
S0018,T01,LDIAM,2.6,mm,3080,TA110
S0018,T02,LDIAM,2.7,mm,3080,TA110
S0018,T03,LDIAM,2.4,mm,3080,TA110
S0018,T04,LDIAM,2.9,mm,3080,TA110
S0018,,SUMDIAM,10.7,mm,3080,TA110
S0019,T01,LDIAM,31.6,mm,0,BASELINE
S0019,,SUMDIAM,31.6,mm,0,BASELINE
S0019,T01,LDIAM,17.5,mm,28,TA1
S0019,,SUMDIAM,17.5,mm,28,TA1
S0019,T01,LDIAM,3.4,mm,56,TA2
S0019,,SUMDIAM,3.4,mm,56,TA2
S0019,T01,LDIAM,3.4,mm,84,TA3
S0019,,SUMDIAM,3.4,mm,84,TA3
S0019,T01,LDIAM,3.4,mm,112,TA4
S0019,,SUMDIAM,3.4,mm,112,TA4
S0019,T01,LDIAM,3.4,mm,140,TA5
S0019,,SUMDIAM,3.4,mm,140,TA5
S0019,T01,LDIAM,3.4,mm,168,TA6
S0019,,SUMDIAM,3.4,mm,168,TA6
S0019,T01,LDIAM,3.4,mm,196,TA7
S0019,,SUMDIAM,3.4,mm,196,TA7
S0019,T01,LDIAM,3.4,mm,224,TA8
S0019,,SUMDIAM,3.4,mm,224,TA8
S0019,T01,LDIAM,3.4,mm,252,TA9
S0019,,SUMDIAM,3.4,mm,252,TA9
S0019,T01,LDIAM,3.4,mm,280,TA10
S0019,,SUMDIAM,3.4,mm,280,TA10
S0019,T01,LDIAM,3.4,mm,308,TA11
S0019,,SUMDIAM,3.4,mm,308,TA11
S0019,T01,LDIAM,3.4,mm,336,TA12
S0019,,SUMDIAM,3.4,mm,336,TA12
S0019,T01,LDIAM,3.4,mm,364,TA13
S0019,,SUMDIAM,3.4,mm,364,TA13
S0019,T01,LDIAM,3.4,mm,392,TA14
S0019,,SUMDIAM,3.4,mm,392,TA14
S0019,T01,LDIAM,3.4,mm,420,TA15
S0019,,SUMDIAM,3.4,mm,420,TA15
S0019,T01,LDIAM,3.4,mm,448,TA16
S0019,,SUMDIAM,3.4,mm,448,TA16
S0019,T01,LDIAM,3.4,mm,476,TA17
S0019,,SUMDIAM,3.4,mm,476,TA17
S0019,T01,LDIAM,3.4,mm,504,TA18
S0019,,SUMDIAM,3.4,mm,504,TA18
S0019,T01,LDIAM,3.4,mm,532,TA19
S0019,,SUMDIAM,3.4,mm,532,TA19
S0019,T01,LDIAM,3.4,mm,560,TA20
S0019,,SUMDIAM,3.4,mm,560,TA20
S0019,T01,LDIAM,3.4,mm,588,TA21
S0019,,SUMDIAM,3.4,mm,588,TA21
S0019,T01,LDIAM,3.4,mm,616,TA22
S0019,,SUMDIAM,3.4,mm,616,TA22
S0019,T01,LDIAM,3.4,mm,644,TA23
S0019,,SUMDIAM,3.4,mm,644,TA23
S0019,T01,LDIAM,3.4,mm,672,TA24
S0019,,SUMDIAM,3.4,mm,672,TA24
S0019,T01,LDIAM,3.4,mm,700,TA25
S0019,,SUMDIAM,3.4,mm,700,TA25
S0019,T01,LDIAM,3.4,mm,728,TA26
S0019,,SUMDIAM,3.4,mm,728,TA26
S0019,T01,LDIAM,3.4,mm,756,TA27
S0019,,SUMDIAM,3.4,mm,756,TA27
S0019,T01,LDIAM,3.4,mm,784,TA28
S0019,,SUMDIAM,3.4,mm,784,TA28
S0019,T01,LDIAM,3.4,mm,812,TA29
S0019,,SUMDIAM,3.4,mm,812,TA29
S0019,T01,LDIAM,3.4,mm,840,TA30
S0019,,SUMDIAM,3.4,mm,840,TA30
S0019,T01,LDIAM,3.4,mm,868,TA31
S0019,,SUMDIAM,3.4,mm,868,TA31
S0019,T01,LDIAM,3.4,mm,896,TA32
S0019,,SUMDIAM,3.4,mm,896,TA32
S0019,T01,LDIAM,3.4,mm,924,TA33
S0019,,SUMDIAM,3.4,mm,924,TA33
S0019,T01,LDIAM,3.4,mm,952,TA34
S0019,,SUMDIAM,3.4,mm,952,TA34
S0019,T01,LDIAM,3.4,mm,980,TA35
S0019,,SUMDIAM,3.4,mm,980,TA35
S0019,T01,LDIAM,3.4,mm,1008,TA36
S0019,,SUMDIAM,3.4,mm,1008,TA36
S0019,T01,LDIAM,3.4,mm,1036,TA37
S0019,,SUMDIAM,3.4,mm,1036,TA37
S0019,T01,LDIAM,3.4,mm,1064,TA38
S0019,,SUMDIAM,3.4,mm,1064,TA38
S0019,T01,LDIAM,3.4,mm,1092,TA39
S0019,,SUMDIAM,3.4,mm,1092,TA39
S0019,T01,LDIAM,3.4,mm,1120,TA40
S0019,,SUMDIAM,3.4,mm,1120,TA40
S0019,T01,LDIAM,3.4,mm,1148,TA41
S0019,,SUMDIAM,3.4,mm,1148,TA41
S0019,T01,LDIAM,3.4,mm,1176,TA42
S0019,,SUMDIAM,3.4,mm,1176,TA42
S0019,T01,LDIAM,3.4,mm,1204,TA43
S0019,,SUMDIAM,3.4,mm,1204,TA43
S0019,T01,LDIAM,3.4,mm,1232,TA44
S0019,,SUMDIAM,3.4,mm,1232,TA44
S0019,T01,LDIAM,3.4,mm,1260,TA45
S0019,,SUMDIAM,3.4,mm,1260,TA45
S0019,T01,LDIAM,3.4,mm,1288,TA46
S0019,,SUMDIAM,3.4,mm,1288,TA46
S0019,T01,LDIAM,3.4,mm,1316,TA47
S0019,,SUMDIAM,3.4,mm,1316,TA47
S0019,T01,LDIAM,5.8,mm,1344,TA48
S0019,,SUMDIAM,5.8,mm,1344,TA48
S0019,T01,LDIAM,5.8,mm,1372,TA49
S0019,,SUMDIAM,5.8,mm,1372,TA49
S0019,T01,LDIAM,5.8,mm,1400,TA50
S0019,,SUMDIAM,5.8,mm,1400,TA50
S0019,T01,LDIAM,5.8,mm,1428,TA51
S0019,,SUMDIAM,5.8,mm,1428,TA51
S0019,T01,LDIAM,5.8,mm,1456,TA52
S0019,,SUMDIAM,5.8,mm,1456,TA52
S0019,T01,LDIAM,5.8,mm,1484,TA53
S0019,,SUMDIAM,5.8,mm,1484,TA53
S0019,T01,LDIAM,5.8,mm,1512,TA54
S0019,,SUMDIAM,5.8,mm,1512,TA54
S0019,T01,LDIAM,5.8,mm,1540,TA55
S0019,,SUMDIAM,5.8,mm,1540,TA55
S0019,T01,LDIAM,5.8,mm,1568,TA56
S0019,,SUMDIAM,5.8,mm,1568,TA56
S0019,T01,LDIAM,5.8,mm,1596,TA57
S0019,,SUMDIAM,5.8,mm,1596,TA57
S0019,T01,LDIAM,5.8,mm,1624,TA58
S0019,,SUMDIAM,5.8,mm,1624,TA58
S0019,T01,LDIAM,5.8,mm,1652,TA59
S0019,,SUMDIAM,5.8,mm,1652,TA59
S0019,T01,LDIAM,5.8,mm,1680,TA60
S0019,,SUMDIAM,5.8,mm,1680,TA60
S0019,T01,LDIAM,5.8,mm,1708,TA61
S0019,,SUMDIAM,5.8,mm,1708,TA61
S0019,T01,LDIAM,5.8,mm,1736,TA62
S0019,,SUMDIAM,5.8,mm,1736,TA62
S0019,T01,LDIAM,5.8,mm,1764,TA63
S0019,,SUMDIAM,5.8,mm,1764,TA63
S0023,T01,LDIAM,44.2,mm,0,BASELINE
S0023,T02,LDIAM,16.7,mm,0,BASELINE
S0023,T03,LDIAM,45.7,mm,0,BASELINE
S0023,,SUMDIAM,106.6,mm,0,BASELINE
S0023,T01,LDIAM,27.7,mm,28,TA1
S0023,T02,LDIAM,10.5,mm,28,TA1
S0023,T03,LDIAM,28.6,mm,28,TA1
S0023,,SUMDIAM,66.8,mm,28,TA1
S0023,T01,LDIAM,11.2,mm,56,TA2
S0023,T02,LDIAM,4.2,mm,56,TA2
S0023,T03,LDIAM,11.5,mm,56,TA2
S0023,,SUMDIAM,26.9,mm,56,TA2
S0023,T01,LDIAM,11.2,mm,84,TA3
S0023,T02,LDIAM,4.2,mm,84,TA3
S0023,T03,LDIAM,11.5,mm,84,TA3
S0023,,SUMDIAM,26.9,mm,84,TA3
S0023,T01,LDIAM,11.2,mm,112,TA4
S0023,T02,LDIAM,4.2,mm,112,TA4
S0023,T03,LDIAM,11.5,mm,112,TA4
S0023,,SUMDIAM,26.9,mm,112,TA4
S0023,T01,LDIAM,11.2,mm,140,TA5
S0023,T02,LDIAM,4.2,mm,140,TA5
S0023,T03,LDIAM,11.5,mm,140,TA5
S0023,,SUMDIAM,26.9,mm,140,TA5
S0023,T01,LDIAM,11.2,mm,168,TA6
S0023,T02,LDIAM,4.2,mm,168,TA6
S0023,T03,LDIAM,11.5,mm,168,TA6
S0023,,SUMDIAM,26.9,mm,168,TA6
S0023,T01,LDIAM,11.2,mm,196,TA7
S0023,T02,LDIAM,4.2,mm,196,TA7
S0023,T03,LDIAM,11.5,mm,196,TA7
S0023,,SUMDIAM,26.9,mm,196,TA7
S0023,T01,LDIAM,11.2,mm,224,TA8
S0023,T02,LDIAM,4.2,mm,224,TA8
S0023,T03,LDIAM,11.5,mm,224,TA8
S0023,,SUMDIAM,26.9,mm,224,TA8
S0023,T01,LDIAM,11.2,mm,252,TA9
S0023,T02,LDIAM,4.2,mm,252,TA9
S0023,T03,LDIAM,11.5,mm,252,TA9
S0023,,SUMDIAM,26.9,mm,252,TA9
S0023,T01,LDIAM,11.2,mm,280,TA10
S0023,T02,LDIAM,4.2,mm,280,TA10
S0023,T03,LDIAM,11.5,mm,280,TA10
S0023,,SUMDIAM,26.9,mm,280,TA10
S0023,T01,LDIAM,11.2,mm,308,TA11
S0023,T02,LDIAM,4.2,mm,308,TA11
S0023,T03,LDIAM,11.5,mm,308,TA11
S0023,,SUMDIAM,26.9,mm,308,TA11
S0023,T01,LDIAM,11.2,mm,336,TA12
S0023,T02,LDIAM,4.2,mm,336,TA12
S0023,T03,LDIAM,11.5,mm,336,TA12
S0023,,SUMDIAM,26.9,mm,336,TA12
S0023,T01,LDIAM,11.2,mm,364,TA13
S0023,T02,LDIAM,4.2,mm,364,TA13
S0023,T03,LDIAM,11.5,mm,364,TA13
S0023,,SUMDIAM,26.9,mm,364,TA13
S0023,T01,LDIAM,11.2,mm,392,TA14
S0023,T02,LDIAM,4.2,mm,392,TA14
S0023,T03,LDIAM,11.5,mm,392,TA14
S0023,,SUMDIAM,26.9,mm,392,TA14
S0023,T01,LDIAM,11.2,mm,420,TA15
S0023,T02,LDIAM,4.2,mm,420,TA15
S0023,T03,LDIAM,11.5,mm,420,TA15
S0023,,SUMDIAM,26.9,mm,420,TA15
S0023,T01,LDIAM,11.2,mm,448,TA16
S0023,T02,LDIAM,4.2,mm,448,TA16
S0023,T03,LDIAM,11.5,mm,448,TA16
S0023,,SUMDIAM,26.9,mm,448,TA16
S0023,T01,LDIAM,11.2,mm,476,TA17
S0023,T02,LDIAM,4.2,mm,476,TA17
S0023,T03,LDIAM,11.5,mm,476,TA17
S0023,,SUMDIAM,26.9,mm,476,TA17
S0023,T01,LDIAM,11.2,mm,504,TA18
S0023,T02,LDIAM,4.2,mm,504,TA18
S0023,T03,LDIAM,11.5,mm,504,TA18
S0023,,SUMDIAM,26.9,mm,504,TA18
S0023,T01,LDIAM,11.2,mm,532,TA19
S0023,T02,LDIAM,4.2,mm,532,TA19
S0023,T03,LDIAM,11.5,mm,532,TA19
S0023,,SUMDIAM,26.9,mm,532,TA19
S0023,T01,LDIAM,11.2,mm,560,TA20
S0023,T02,LDIAM,4.2,mm,560,TA20
S0023,T03,LDIAM,11.5,mm,560,TA20
S0023,,SUMDIAM,26.9,mm,560,TA20
S0023,T01,LDIAM,11.2,mm,588,TA21
S0023,T02,LDIAM,4.2,mm,588,TA21
S0023,T03,LDIAM,11.5,mm,588,TA21
S0023,,SUMDIAM,26.9,mm,588,TA21
S0023,T01,LDIAM,16.2,mm,616,TA22
S0023,T02,LDIAM,6.1,mm,616,TA22
S0023,T03,LDIAM,16.7,mm,616,TA22
S0023,,SUMDIAM,39.0,mm,616,TA22
S0023,T01,LDIAM,16.2,mm,644,TA23
S0023,T02,LDIAM,6.1,mm,644,TA23
S0023,T03,LDIAM,16.7,mm,644,TA23
S0023,,SUMDIAM,39.0,mm,644,TA23
S0023,T01,LDIAM,16.2,mm,672,TA24
S0023,T02,LDIAM,6.1,mm,672,TA24
S0023,T03,LDIAM,16.7,mm,672,TA24
S0023,,SUMDIAM,39.0,mm,672,TA24
S0023,T01,LDIAM,16.2,mm,700,TA25
S0023,T02,LDIAM,6.1,mm,700,TA25
S0023,T03,LDIAM,16.7,mm,700,TA25
S0023,,SUMDIAM,39.0,mm,700,TA25
S0023,T01,LDIAM,16.2,mm,728,TA26
S0023,T02,LDIAM,6.1,mm,728,TA26
S0023,T03,LDIAM,16.7,mm,728,TA26
S0023,,SUMDIAM,39.0,mm,728,TA26
S0023,T01,LDIAM,16.2,mm,756,TA27
S0023,T02,LDIAM,6.1,mm,756,TA27
S0023,T03,LDIAM,16.7,mm,756,TA27
S0023,,SUMDIAM,39.0,mm,756,TA27
S0023,T01,LDIAM,16.2,mm,784,TA28
S0023,T02,LDIAM,6.1,mm,784,TA28
S0023,T03,LDIAM,16.7,mm,784,TA28
S0023,,SUMDIAM,39.0,mm,784,TA28
S0023,T01,LDIAM,16.2,mm,812,TA29
S0023,T02,LDIAM,6.1,mm,812,TA29
S0023,T03,LDIAM,16.7,mm,812,TA29
S0023,,SUMDIAM,39.0,mm,812,TA29
S0023,T01,LDIAM,16.2,mm,840,TA30
S0023,T02,LDIAM,6.1,mm,840,TA30
S0023,T03,LDIAM,16.7,mm,840,TA30
S0023,,SUMDIAM,39.0,mm,840,TA30
S0023,T01,LDIAM,16.2,mm,868,TA31
S0023,T02,LDIAM,6.1,mm,868,TA31
S0023,T03,LDIAM,16.7,mm,868,TA31
S0023,,SUMDIAM,39.0,mm,868,TA31
S0023,T01,LDIAM,16.2,mm,896,TA32
S0023,T02,LDIAM,6.1,mm,896,TA32
S0023,T03,LDIAM,16.7,mm,896,TA32
S0023,,SUMDIAM,39.0,mm,896,TA32
S0023,T01,LDIAM,16.2,mm,924,TA33
S0023,T02,LDIAM,6.1,mm,924,TA33
S0023,T03,LDIAM,16.7,mm,924,TA33
S0023,,SUMDIAM,39.0,mm,924,TA33
S0023,T01,LDIAM,16.2,mm,952,TA34
S0023,T02,LDIAM,6.1,mm,952,TA34
S0023,T03,LDIAM,16.7,mm,952,TA34
S0023,,SUMDIAM,39.0,mm,952,TA34
S0023,T01,LDIAM,16.2,mm,980,TA35
S0023,T02,LDIAM,6.1,mm,980,TA35
S0023,T03,LDIAM,16.7,mm,980,TA35
S0023,,SUMDIAM,39.0,mm,980,TA35
S0023,T01,LDIAM,16.2,mm,1008,TA36
S0023,T02,LDIAM,6.1,mm,1008,TA36
S0023,T03,LDIAM,16.7,mm,1008,TA36
S0023,,SUMDIAM,39.0,mm,1008,TA36
S0023,T01,LDIAM,16.2,mm,1036,TA37
S0023,T02,LDIAM,6.1,mm,1036,TA37
S0023,T03,LDIAM,16.7,mm,1036,TA37
S0023,,SUMDIAM,39.0,mm,1036,TA37
S0023,T01,LDIAM,16.2,mm,1064,TA38
S0023,T02,LDIAM,6.1,mm,1064,TA38
S0023,T03,LDIAM,16.7,mm,1064,TA38
S0023,,SUMDIAM,39.0,mm,1064,TA38
S0023,T01,LDIAM,16.2,mm,1092,TA39
S0023,T02,LDIAM,6.1,mm,1092,TA39
S0023,T03,LDIAM,16.7,mm,1092,TA39
S0023,,SUMDIAM,39.0,mm,1092,TA39
S0023,T01,LDIAM,16.2,mm,1120,TA40
S0023,T02,LDIAM,6.1,mm,1120,TA40
S0023,T03,LDIAM,16.7,mm,1120,TA40
S0023,,SUMDIAM,39.0,mm,1120,TA40
S0023,T01,LDIAM,16.2,mm,1148,TA41
S0023,T02,LDIAM,6.1,mm,1148,TA41
S0023,T03,LDIAM,16.7,mm,1148,TA41
S0023,,SUMDIAM,39.0,mm,1148,TA41
S0023,T01,LDIAM,16.2,mm,1176,TA42
S0023,T02,LDIAM,6.1,mm,1176,TA42
S0023,T03,LDIAM,16.7,mm,1176,TA42
S0023,,SUMDIAM,39.0,mm,1176,TA42
S0023,T01,LDIAM,16.2,mm,1204,TA43
S0023,T02,LDIAM,6.1,mm,1204,TA43
S0023,T03,LDIAM,16.7,mm,1204,TA43
S0023,,SUMDIAM,39.0,mm,1204,TA43
S0023,T01,LDIAM,16.2,mm,1232,TA44
S0023,T02,LDIAM,6.1,mm,1232,TA44
S0023,T03,LDIAM,16.7,mm,1232,TA44
S0023,,SUMDIAM,39.0,mm,1232,TA44
S0023,T01,LDIAM,16.2,mm,1260,TA45
S0023,T02,LDIAM,6.1,mm,1260,TA45
S0023,T03,LDIAM,16.7,mm,1260,TA45
S0023,,SUMDIAM,39.0,mm,1260,TA45
S0023,T01,LDIAM,16.2,mm,1288,TA46
S0023,T02,LDIAM,6.1,mm,1288,TA46
S0023,T03,LDIAM,16.7,mm,1288,TA46
S0023,,SUMDIAM,39.0,mm,1288,TA46
S0023,T01,LDIAM,16.2,mm,1316,TA47
S0023,T02,LDIAM,6.1,mm,1316,TA47
S0023,T03,LDIAM,16.7,mm,1316,TA47
S0023,,SUMDIAM,39.0,mm,1316,TA47
S0023,T01,LDIAM,16.2,mm,1344,TA48
S0023,T02,LDIAM,6.1,mm,1344,TA48
S0023,T03,LDIAM,16.7,mm,1344,TA48
S0023,,SUMDIAM,39.0,mm,1344,TA48
S0027,T01,LDIAM,58.1,mm,0,BASELINE
S0027,T02,LDIAM,56.9,mm,0,BASELINE
S0027,T03,LDIAM,46.0,mm,0,BASELINE
S0027,,SUMDIAM,161.0,mm,0,BASELINE
S0027,T01,LDIAM,29.1,mm,28,TA1
S0027,T02,LDIAM,28.4,mm,28,TA1
S0027,T03,LDIAM,23.0,mm,28,TA1
S0027,,SUMDIAM,80.5,mm,28,TA1
S0027,T01,LDIAM,0.0,mm,56,TA2
S0027,T02,LDIAM,0.0,mm,56,TA2
S0027,T03,LDIAM,0.0,mm,56,TA2
S0027,,SUMDIAM,0.0,mm,56,TA2
S0027,T01,LDIAM,0.0,mm,84,TA3
S0027,T02,LDIAM,0.0,mm,84,TA3
S0027,T03,LDIAM,0.0,mm,84,TA3
S0027,,SUMDIAM,0.0,mm,84,TA3
S0027,T01,LDIAM,0.0,mm,112,TA4
S0027,T02,LDIAM,0.0,mm,112,TA4
S0027,T03,LDIAM,0.0,mm,112,TA4
S0027,,SUMDIAM,0.0,mm,112,TA4
S0027,T01,LDIAM,0.0,mm,140,TA5
S0027,T02,LDIAM,0.0,mm,140,TA5
S0027,T03,LDIAM,0.0,mm,140,TA5
S0027,,SUMDIAM,0.0,mm,140,TA5
S0027,T01,LDIAM,0.0,mm,168,TA6
S0027,T02,LDIAM,0.0,mm,168,TA6
S0027,T03,LDIAM,0.0,mm,168,TA6
S0027,,SUMDIAM,0.0,mm,168,TA6
S0027,T01,LDIAM,0.0,mm,196,TA7
S0027,T02,LDIAM,0.0,mm,196,TA7
S0027,T03,LDIAM,0.0,mm,196,TA7
S0027,,SUMDIAM,0.0,mm,196,TA7
S0027,T01,LDIAM,0.0,mm,224,TA8
S0027,T02,LDIAM,0.0,mm,224,TA8
S0027,T03,LDIAM,0.0,mm,224,TA8
S0027,,SUMDIAM,0.0,mm,224,TA8
S0027,T01,LDIAM,0.0,mm,252,TA9
S0027,T02,LDIAM,0.0,mm,252,TA9
S0027,T03,LDIAM,0.0,mm,252,TA9
S0027,,SUMDIAM,0.0,mm,252,TA9
S0027,T01,LDIAM,0.0,mm,280,TA10
S0027,T02,LDIAM,0.0,mm,280,TA10
S0027,T03,LDIAM,0.0,mm,280,TA10
S0027,,SUMDIAM,0.0,mm,280,TA10
S0027,T01,LDIAM,2.9,mm,308,TA11
S0027,T02,LDIAM,2.8,mm,308,TA11
S0027,T03,LDIAM,2.3,mm,308,TA11
S0027,,SUMDIAM,8.1,mm,308,TA11
S0027,T01,LDIAM,2.9,mm,336,TA12
S0027,T02,LDIAM,2.8,mm,336,TA12
S0027,T03,LDIAM,2.3,mm,336,TA12
S0027,,SUMDIAM,8.1,mm,336,TA12
S0027,T01,LDIAM,2.9,mm,364,TA13
S0027,T02,LDIAM,2.8,mm,364,TA13
S0027,T03,LDIAM,2.3,mm,364,TA13
S0027,,SUMDIAM,8.1,mm,364,TA13
S0027,T01,LDIAM,2.9,mm,392,TA14
S0027,T02,LDIAM,2.8,mm,392,TA14
S0027,T03,LDIAM,2.3,mm,392,TA14
S0027,,SUMDIAM,8.1,mm,392,TA14
S0027,T01,LDIAM,2.9,mm,420,TA15
S0027,T02,LDIAM,2.8,mm,420,TA15
S0027,T03,LDIAM,2.3,mm,420,TA15
S0027,,SUMDIAM,8.1,mm,420,TA15
S0027,T01,LDIAM,2.9,mm,448,TA16
S0027,T02,LDIAM,2.8,mm,448,TA16
S0027,T03,LDIAM,2.3,mm,448,TA16
S0027,,SUMDIAM,8.1,mm,448,TA16
S0027,T01,LDIAM,2.9,mm,476,TA17
S0027,T02,LDIAM,2.8,mm,476,TA17
S0027,T03,LDIAM,2.3,mm,476,TA17
S0027,,SUMDIAM,8.1,mm,476,TA17
S0027,T01,LDIAM,2.9,mm,504,TA18
S0027,T02,LDIAM,2.8,mm,504,TA18
S0027,T03,LDIAM,2.3,mm,504,TA18
S0027,,SUMDIAM,8.1,mm,504,TA18
S0027,T01,LDIAM,2.9,mm,532,TA19
S0027,T02,LDIAM,2.8,mm,532,TA19
S0027,T03,LDIAM,2.3,mm,532,TA19
S0027,,SUMDIAM,8.1,mm,532,TA19
S0027,T01,LDIAM,2.9,mm,560,TA20
S0027,T02,LDIAM,2.8,mm,560,TA20
S0027,T03,LDIAM,2.3,mm,560,TA20
S0027,,SUMDIAM,8.1,mm,560,TA20
S0027,T01,LDIAM,2.9,mm,588,TA21
S0027,T02,LDIAM,2.8,mm,588,TA21
S0027,T03,LDIAM,2.3,mm,588,TA21
S0027,,SUMDIAM,8.1,mm,588,TA21
S0027,T01,LDIAM,2.9,mm,616,TA22
S0027,T02,LDIAM,2.8,mm,616,TA22
S0027,T03,LDIAM,2.3,mm,616,TA22
S0027,,SUMDIAM,8.1,mm,616,TA22
S0027,T01,LDIAM,2.9,mm,644,TA23
S0027,T02,LDIAM,2.8,mm,644,TA23
S0027,T03,LDIAM,2.3,mm,644,TA23
S0027,,SUMDIAM,8.1,mm,644,TA23
S0027,T01,LDIAM,2.9,mm,672,TA24
S0027,T02,LDIAM,2.8,mm,672,TA24
S0027,T03,LDIAM,2.3,mm,672,TA24
S0027,,SUMDIAM,8.1,mm,672,TA24
S0027,T01,LDIAM,2.9,mm,700,TA25
S0027,T02,LDIAM,2.8,mm,700,TA25
S0027,T03,LDIAM,2.3,mm,700,TA25
S0027,,SUMDIAM,8.1,mm,700,TA25
S0027,T01,LDIAM,2.9,mm,728,TA26
S0027,T02,LDIAM,2.8,mm,728,TA26
S0027,T03,LDIAM,2.3,mm,728,TA26
S0027,,SUMDIAM,8.1,mm,728,TA26
S0027,T01,LDIAM,2.9,mm,756,TA27
S0027,T02,LDIAM,2.8,mm,756,TA27
S0027,T03,LDIAM,2.3,mm,756,TA27
S0027,,SUMDIAM,8.1,mm,756,TA27
S0027,T01,LDIAM,2.9,mm,784,TA28
S0027,T02,LDIAM,2.8,mm,784,TA28
S0027,T03,LDIAM,2.3,mm,784,TA28
S0027,,SUMDIAM,8.1,mm,784,TA28
S0027,T01,LDIAM,2.9,mm,812,TA29
S0027,T02,LDIAM,2.8,mm,812,TA29
S0027,T03,LDIAM,2.3,mm,812,TA29
S0027,,SUMDIAM,8.1,mm,812,TA29
S0027,T01,LDIAM,2.9,mm,840,TA30
S0027,T02,LDIAM,2.8,mm,840,TA30
S0027,T03,LDIAM,2.3,mm,840,TA30
S0027,,SUMDIAM,8.1,mm,840,TA30
S0027,T01,LDIAM,2.9,mm,868,TA31
S0027,T02,LDIAM,2.8,mm,868,TA31
S0027,T03,LDIAM,2.3,mm,868,TA31
S0027,,SUMDIAM,8.1,mm,868,TA31
S0027,T01,LDIAM,2.9,mm,896,TA32
S0027,T02,LDIAM,2.8,mm,896,TA32
S0027,T03,LDIAM,2.3,mm,896,TA32
S0027,,SUMDIAM,8.1,mm,896,TA32
S0027,T01,LDIAM,2.9,mm,924,TA33
S0027,T02,LDIAM,2.8,mm,924,TA33
S0027,T03,LDIAM,2.3,mm,924,TA33
S0027,,SUMDIAM,8.1,mm,924,TA33
S0027,T01,LDIAM,2.9,mm,952,TA34
S0027,T02,LDIAM,2.8,mm,952,TA34
S0027,T03,LDIAM,2.3,mm,952,TA34
S0027,,SUMDIAM,8.1,mm,952,TA34
S0027,T01,LDIAM,2.9,mm,980,TA35
S0027,T02,LDIAM,2.8,mm,980,TA35
S0027,T03,LDIAM,2.3,mm,980,TA35
S0027,,SUMDIAM,8.1,mm,980,TA35
S0027,T01,LDIAM,2.9,mm,1008,TA36
S0027,T02,LDIAM,2.8,mm,1008,TA36
S0027,T03,LDIAM,2.3,mm,1008,TA36
S0027,,SUMDIAM,8.1,mm,1008,TA36
S0027,T01,LDIAM,2.9,mm,1036,TA37
S0027,T02,LDIAM,2.8,mm,1036,TA37
S0027,T03,LDIAM,2.3,mm,1036,TA37
S0027,,SUMDIAM,8.1,mm,1036,TA37
S0027,T01,LDIAM,2.9,mm,1064,TA38
S0027,T02,LDIAM,2.8,mm,1064,TA38
S0027,T03,LDIAM,2.3,mm,1064,TA38
S0027,,SUMDIAM,8.1,mm,1064,TA38
S0027,T01,LDIAM,2.9,mm,1092,TA39
S0027,T02,LDIAM,2.8,mm,1092,TA39
S0027,T03,LDIAM,2.3,mm,1092,TA39
S0027,,SUMDIAM,8.1,mm,1092,TA39
S0027,T01,LDIAM,2.9,mm,1120,TA40
S0027,T02,LDIAM,2.8,mm,1120,TA40
S0027,T03,LDIAM,2.3,mm,1120,TA40
S0027,,SUMDIAM,8.1,mm,1120,TA40
S0027,T01,LDIAM,2.9,mm,1148,TA41
S0027,T02,LDIAM,2.8,mm,1148,TA41
S0027,T03,LDIAM,2.3,mm,1148,TA41
S0027,,SUMDIAM,8.1,mm,1148,TA41
S0027,T01,LDIAM,2.9,mm,1176,TA42
S0027,T02,LDIAM,2.8,mm,1176,TA42
S0027,T03,LDIAM,2.3,mm,1176,TA42
S0027,,SUMDIAM,8.1,mm,1176,TA42
S0027,T01,LDIAM,2.9,mm,1204,TA43
S0027,T02,LDIAM,2.8,mm,1204,TA43
S0027,T03,LDIAM,2.3,mm,1204,TA43
S0027,,SUMDIAM,8.1,mm,1204,TA43
S0027,T01,LDIAM,2.9,mm,1232,TA44
S0027,T02,LDIAM,2.8,mm,1232,TA44
S0027,T03,LDIAM,2.3,mm,1232,TA44
S0027,,SUMDIAM,8.1,mm,1232,TA44
S0027,T01,LDIAM,2.9,mm,1260,TA45
S0027,T02,LDIAM,2.8,mm,1260,TA45
S0027,T03,LDIAM,2.3,mm,1260,TA45
S0027,,SUMDIAM,8.1,mm,1260,TA45
S0027,T01,LDIAM,2.9,mm,1288,TA46
S0027,T02,LDIAM,2.8,mm,1288,TA46
S0027,T03,LDIAM,2.3,mm,1288,TA46
S0027,,SUMDIAM,8.1,mm,1288,TA46
S0027,T01,LDIAM,2.9,mm,1316,TA47
S0027,T02,LDIAM,2.8,mm,1316,TA47
S0027,T03,LDIAM,2.3,mm,1316,TA47
S0027,,SUMDIAM,8.1,mm,1316,TA47
S0027,T01,LDIAM,2.9,mm,1344,TA48
S0027,T02,LDIAM,2.8,mm,1344,TA48
S0027,T03,LDIAM,2.3,mm,1344,TA48
S0027,,SUMDIAM,8.1,mm,1344,TA48
S0027,T01,LDIAM,2.9,mm,1372,TA49
S0027,T02,LDIAM,2.8,mm,1372,TA49
S0027,T03,LDIAM,2.3,mm,1372,TA49
S0027,,SUMDIAM,8.1,mm,1372,TA49
S0027,T01,LDIAM,2.9,mm,1400,TA50
S0027,T02,LDIAM,2.8,mm,1400,TA50
S0027,T03,LDIAM,2.3,mm,1400,TA50
S0027,,SUMDIAM,8.1,mm,1400,TA50
S0027,T01,LDIAM,2.9,mm,1428,TA51
S0027,T02,LDIAM,2.8,mm,1428,TA51
S0027,T03,LDIAM,2.3,mm,1428,TA51
S0027,,SUMDIAM,8.1,mm,1428,TA51
S0027,T01,LDIAM,2.9,mm,1456,TA52
S0027,T02,LDIAM,2.8,mm,1456,TA52
S0027,T03,LDIAM,2.3,mm,1456,TA52
S0027,,SUMDIAM,8.1,mm,1456,TA52
S0027,T01,LDIAM,2.9,mm,1484,TA53
S0027,T02,LDIAM,2.8,mm,1484,TA53
S0027,T03,LDIAM,2.3,mm,1484,TA53
S0027,,SUMDIAM,8.1,mm,1484,TA53
S0027,T01,LDIAM,2.9,mm,1512,TA54
S0027,T02,LDIAM,2.8,mm,1512,TA54
S0027,T03,LDIAM,2.3,mm,1512,TA54
S0027,,SUMDIAM,8.1,mm,1512,TA54
S0027,T01,LDIAM,2.9,mm,1540,TA55
S0027,T02,LDIAM,2.8,mm,1540,TA55
S0027,T03,LDIAM,2.3,mm,1540,TA55
S0027,,SUMDIAM,8.1,mm,1540,TA55
S0027,T01,LDIAM,2.9,mm,1568,TA56
S0027,T02,LDIAM,2.8,mm,1568,TA56
S0027,T03,LDIAM,2.3,mm,1568,TA56
S0027,,SUMDIAM,8.1,mm,1568,TA56
S0027,T01,LDIAM,2.9,mm,1596,TA57
S0027,T02,LDIAM,2.8,mm,1596,TA57
S0027,T03,LDIAM,2.3,mm,1596,TA57
S0027,,SUMDIAM,8.1,mm,1596,TA57
S0027,T01,LDIAM,2.9,mm,1624,TA58
S0027,T02,LDIAM,2.8,mm,1624,TA58
S0027,T03,LDIAM,2.3,mm,1624,TA58
S0027,,SUMDIAM,8.1,mm,1624,TA58
S0027,T01,LDIAM,2.9,mm,1652,TA59
S0027,T02,LDIAM,2.8,mm,1652,TA59
S0027,T03,LDIAM,2.3,mm,1652,TA59
S0027,,SUMDIAM,8.1,mm,1652,TA59
S0027,T01,LDIAM,2.9,mm,1680,TA60
S0027,T02,LDIAM,2.8,mm,1680,TA60
S0027,T03,LDIAM,2.3,mm,1680,TA60
S0027,,SUMDIAM,8.1,mm,1680,TA60
S0027,T01,LDIAM,2.9,mm,1708,TA61
S0027,T02,LDIAM,2.8,mm,1708,TA61
S0027,T03,LDIAM,2.3,mm,1708,TA61
S0027,,SUMDIAM,8.1,mm,1708,TA61
S0027,T01,LDIAM,2.9,mm,1736,TA62
S0027,T02,LDIAM,2.8,mm,1736,TA62
S0027,T03,LDIAM,2.3,mm,1736,TA62
S0027,,SUMDIAM,8.1,mm,1736,TA62
S0027,T01,LDIAM,2.9,mm,1764,TA63
S0027,T02,LDIAM,2.8,mm,1764,TA63
S0027,T03,LDIAM,2.3,mm,1764,TA63
S0027,,SUMDIAM,8.1,mm,1764,TA63
S0027,T01,LDIAM,2.9,mm,1792,TA64
S0027,T02,LDIAM,2.8,mm,1792,TA64
S0027,T03,LDIAM,2.3,mm,1792,TA64
S0027,,SUMDIAM,8.1,mm,1792,TA64
S0027,T01,LDIAM,2.9,mm,1820,TA65
S0027,T02,LDIAM,2.8,mm,1820,TA65
S0027,T03,LDIAM,2.3,mm,1820,TA65
S0027,,SUMDIAM,8.1,mm,1820,TA65
S0027,T01,LDIAM,2.9,mm,1848,TA66
S0027,T02,LDIAM,2.8,mm,1848,TA66
S0027,T03,LDIAM,2.3,mm,1848,TA66
S0027,,SUMDIAM,8.1,mm,1848,TA66
S0027,T01,LDIAM,2.9,mm,1876,TA67
S0027,T02,LDIAM,2.8,mm,1876,TA67
S0027,T03,LDIAM,2.3,mm,1876,TA67
S0027,,SUMDIAM,8.1,mm,1876,TA67
S0027,T01,LDIAM,2.9,mm,1904,TA68
S0027,T02,LDIAM,2.8,mm,1904,TA68
S0027,T03,LDIAM,2.3,mm,1904,TA68
S0027,,SUMDIAM,8.1,mm,1904,TA68
S0027,T01,LDIAM,2.9,mm,1932,TA69
S0027,T02,LDIAM,2.8,mm,1932,TA69
S0027,T03,LDIAM,2.3,mm,1932,TA69
S0027,,SUMDIAM,8.1,mm,1932,TA69
S0027,T01,LDIAM,2.9,mm,1960,TA70
S0027,T02,LDIAM,2.8,mm,1960,TA70
S0027,T03,LDIAM,2.3,mm,1960,TA70
S0027,,SUMDIAM,8.1,mm,1960,TA70
S0027,T01,LDIAM,2.9,mm,1988,TA71
S0027,T02,LDIAM,2.8,mm,1988,TA71
S0027,T03,LDIAM,2.3,mm,1988,TA71
S0027,,SUMDIAM,8.1,mm,1988,TA71
S0027,T01,LDIAM,2.9,mm,2016,TA72
S0027,T02,LDIAM,2.8,mm,2016,TA72
S0027,T03,LDIAM,2.3,mm,2016,TA72
S0027,,SUMDIAM,8.1,mm,2016,TA72
S0027,T01,LDIAM,2.9,mm,2044,TA73
S0027,T02,LDIAM,2.8,mm,2044,TA73
S0027,T03,LDIAM,2.3,mm,2044,TA73
S0027,,SUMDIAM,8.1,mm,2044,TA73
S0027,T01,LDIAM,2.9,mm,2072,TA74
S0027,T02,LDIAM,2.8,mm,2072,TA74
S0027,T03,LDIAM,2.3,mm,2072,TA74
S0027,,SUMDIAM,8.1,mm,2072,TA74
S0027,T01,LDIAM,2.9,mm,2100,TA75
S0027,T02,LDIAM,2.8,mm,2100,TA75
S0027,T03,LDIAM,2.3,mm,2100,TA75
S0027,,SUMDIAM,8.1,mm,2100,TA75
S0027,T01,LDIAM,2.9,mm,2128,TA76
S0027,T02,LDIAM,2.8,mm,2128,TA76
S0027,T03,LDIAM,2.3,mm,2128,TA76
S0027,,SUMDIAM,8.1,mm,2128,TA76
S0027,T01,LDIAM,2.9,mm,2156,TA77
S0027,T02,LDIAM,2.8,mm,2156,TA77
S0027,T03,LDIAM,2.3,mm,2156,TA77
S0027,,SUMDIAM,8.1,mm,2156,TA77
S0028,T01,LDIAM,39.4,mm,0,BASELINE
S0028,T02,LDIAM,25.8,mm,0,BASELINE
S0028,T03,LDIAM,47.6,mm,0,BASELINE
S0028,T04,LDIAM,12.3,mm,0,BASELINE
S0028,,SUMDIAM,125.1,mm,0,BASELINE
S0028,T01,LDIAM,19.7,mm,28,TA1
S0028,T02,LDIAM,12.9,mm,28,TA1
S0028,T03,LDIAM,23.8,mm,28,TA1
S0028,T04,LDIAM,6.2,mm,28,TA1
S0028,,SUMDIAM,62.6,mm,28,TA1
S0028,T01,LDIAM,0.0,mm,56,TA2
S0028,T02,LDIAM,0.0,mm,56,TA2
S0028,T03,LDIAM,0.0,mm,56,TA2
S0028,T04,LDIAM,0.0,mm,56,TA2
S0028,,SUMDIAM,0.0,mm,56,TA2
S0028,T01,LDIAM,0.0,mm,84,TA3
S0028,T02,LDIAM,0.0,mm,84,TA3
S0028,T03,LDIAM,0.0,mm,84,TA3
S0028,T04,LDIAM,0.0,mm,84,TA3
S0028,,SUMDIAM,0.0,mm,84,TA3
S0028,T01,LDIAM,0.0,mm,112,TA4
S0028,T02,LDIAM,0.0,mm,112,TA4
S0028,T03,LDIAM,0.0,mm,112,TA4
S0028,T04,LDIAM,0.0,mm,112,TA4
S0028,,SUMDIAM,0.0,mm,112,TA4
S0028,T01,LDIAM,0.0,mm,140,TA5
S0028,T02,LDIAM,0.0,mm,140,TA5
S0028,T03,LDIAM,0.0,mm,140,TA5
S0028,T04,LDIAM,0.0,mm,140,TA5
S0028,,SUMDIAM,0.0,mm,140,TA5
S0028,T01,LDIAM,0.0,mm,168,TA6
S0028,T02,LDIAM,0.0,mm,168,TA6
S0028,T03,LDIAM,0.0,mm,168,TA6
S0028,T04,LDIAM,0.0,mm,168,TA6
S0028,,SUMDIAM,0.0,mm,168,TA6
S0028,T01,LDIAM,2.0,mm,196,TA7
S0028,T02,LDIAM,1.3,mm,196,TA7
S0028,T03,LDIAM,2.4,mm,196,TA7
S0028,T04,LDIAM,0.6,mm,196,TA7
S0028,,SUMDIAM,6.3,mm,196,TA7
S0028,T01,LDIAM,2.0,mm,224,TA8
S0028,T02,LDIAM,1.3,mm,224,TA8
S0028,T03,LDIAM,2.4,mm,224,TA8
S0028,T04,LDIAM,0.6,mm,224,TA8
S0028,,SUMDIAM,6.3,mm,224,TA8
S0028,T01,LDIAM,2.0,mm,252,TA9
S0028,T02,LDIAM,1.3,mm,252,TA9
S0028,T03,LDIAM,2.4,mm,252,TA9
S0028,T04,LDIAM,0.6,mm,252,TA9
S0028,,SUMDIAM,6.3,mm,252,TA9
S0028,T01,LDIAM,2.0,mm,280,TA10
S0028,T02,LDIAM,1.3,mm,280,TA10
S0028,T03,LDIAM,2.4,mm,280,TA10
S0028,T04,LDIAM,0.6,mm,280,TA10
S0028,,SUMDIAM,6.3,mm,280,TA10
S0028,T01,LDIAM,2.0,mm,308,TA11
S0028,T02,LDIAM,1.3,mm,308,TA11
S0028,T03,LDIAM,2.4,mm,308,TA11
S0028,T04,LDIAM,0.6,mm,308,TA11
S0028,,SUMDIAM,6.3,mm,308,TA11
S0028,T01,LDIAM,2.0,mm,336,TA12
S0028,T02,LDIAM,1.3,mm,336,TA12
S0028,T03,LDIAM,2.4,mm,336,TA12
S0028,T04,LDIAM,0.6,mm,336,TA12
S0028,,SUMDIAM,6.3,mm,336,TA12
S0028,T01,LDIAM,2.0,mm,364,TA13
S0028,T02,LDIAM,1.3,mm,364,TA13
S0028,T03,LDIAM,2.4,mm,364,TA13
S0028,T04,LDIAM,0.6,mm,364,TA13
S0028,,SUMDIAM,6.3,mm,364,TA13
S0028,T01,LDIAM,2.0,mm,392,TA14
S0028,T02,LDIAM,1.3,mm,392,TA14
S0028,T03,LDIAM,2.4,mm,392,TA14
S0028,T04,LDIAM,0.6,mm,392,TA14
S0028,,SUMDIAM,6.3,mm,392,TA14
S0028,T01,LDIAM,2.0,mm,420,TA15
S0028,T02,LDIAM,1.3,mm,420,TA15
S0028,T03,LDIAM,2.4,mm,420,TA15
S0028,T04,LDIAM,0.6,mm,420,TA15
S0028,,SUMDIAM,6.3,mm,420,TA15
S0028,T01,LDIAM,2.0,mm,448,TA16
S0028,T02,LDIAM,1.3,mm,448,TA16
S0028,T03,LDIAM,2.4,mm,448,TA16
S0028,T04,LDIAM,0.6,mm,448,TA16
S0028,,SUMDIAM,6.3,mm,448,TA16
S0028,T01,LDIAM,2.0,mm,476,TA17
S0028,T02,LDIAM,1.3,mm,476,TA17
S0028,T03,LDIAM,2.4,mm,476,TA17
S0028,T04,LDIAM,0.6,mm,476,TA17
S0028,,SUMDIAM,6.3,mm,476,TA17
S0028,T01,LDIAM,2.0,mm,504,TA18
S0028,T02,LDIAM,1.3,mm,504,TA18
S0028,T03,LDIAM,2.4,mm,504,TA18
S0028,T04,LDIAM,0.6,mm,504,TA18
S0028,,SUMDIAM,6.3,mm,504,TA18
S0028,T01,LDIAM,2.0,mm,532,TA19
S0028,T02,LDIAM,1.3,mm,532,TA19
S0028,T03,LDIAM,2.4,mm,532,TA19
S0028,T04,LDIAM,0.6,mm,532,TA19
S0028,,SUMDIAM,6.3,mm,532,TA19
S0028,T01,LDIAM,2.0,mm,560,TA20
S0028,T02,LDIAM,1.3,mm,560,TA20
S0028,T03,LDIAM,2.4,mm,560,TA20
S0028,T04,LDIAM,0.6,mm,560,TA20
S0028,,SUMDIAM,6.3,mm,560,TA20
S0029,T01,LDIAM,13.6,mm,0,BASELINE
S0029,T02,LDIAM,17.0,mm,0,BASELINE
S0029,T03,LDIAM,11.8,mm,0,BASELINE
S0029,T04,LDIAM,36.3,mm,0,BASELINE
S0029,,SUMDIAM,78.7,mm,0,BASELINE
S0029,T01,LDIAM,6.8,mm,28,TA1
S0029,T02,LDIAM,8.5,mm,28,TA1
S0029,T03,LDIAM,5.9,mm,28,TA1
S0029,T04,LDIAM,18.1,mm,28,TA1
S0029,,SUMDIAM,39.4,mm,28,TA1
S0029,T01,LDIAM,0.0,mm,56,TA2
S0029,T02,LDIAM,0.0,mm,56,TA2
S0029,T03,LDIAM,0.0,mm,56,TA2
S0029,T04,LDIAM,0.0,mm,56,TA2
S0029,,SUMDIAM,0.0,mm,56,TA2
S0029,T01,LDIAM,0.0,mm,84,TA3
S0029,T02,LDIAM,0.0,mm,84,TA3
S0029,T03,LDIAM,0.0,mm,84,TA3
S0029,T04,LDIAM,0.0,mm,84,TA3
S0029,,SUMDIAM,0.0,mm,84,TA3
S0029,T01,LDIAM,0.0,mm,112,TA4
S0029,T02,LDIAM,0.0,mm,112,TA4
S0029,T03,LDIAM,0.0,mm,112,TA4
S0029,T04,LDIAM,0.0,mm,112,TA4
S0029,,SUMDIAM,0.0,mm,112,TA4
S0029,T01,LDIAM,0.0,mm,140,TA5
S0029,T02,LDIAM,0.0,mm,140,TA5
S0029,T03,LDIAM,0.0,mm,140,TA5
S0029,T04,LDIAM,0.0,mm,140,TA5
S0029,,SUMDIAM,0.0,mm,140,TA5
S0029,T01,LDIAM,0.0,mm,168,TA6
S0029,T02,LDIAM,0.0,mm,168,TA6
S0029,T03,LDIAM,0.0,mm,168,TA6
S0029,T04,LDIAM,0.0,mm,168,TA6
S0029,,SUMDIAM,0.0,mm,168,TA6
S0029,T01,LDIAM,0.0,mm,196,TA7
S0029,T02,LDIAM,0.0,mm,196,TA7
S0029,T03,LDIAM,0.0,mm,196,TA7
S0029,T04,LDIAM,0.0,mm,196,TA7
S0029,,SUMDIAM,0.0,mm,196,TA7
S0029,T01,LDIAM,0.0,mm,224,TA8
S0029,T02,LDIAM,0.0,mm,224,TA8
S0029,T03,LDIAM,0.0,mm,224,TA8
S0029,T04,LDIAM,0.0,mm,224,TA8
S0029,,SUMDIAM,0.0,mm,224,TA8
S0029,T01,LDIAM,0.0,mm,252,TA9
S0029,T02,LDIAM,0.0,mm,252,TA9
S0029,T03,LDIAM,0.0,mm,252,TA9
S0029,T04,LDIAM,0.0,mm,252,TA9
S0029,,SUMDIAM,0.0,mm,252,TA9
S0029,T01,LDIAM,0.0,mm,280,TA10
S0029,T02,LDIAM,0.0,mm,280,TA10
S0029,T03,LDIAM,0.0,mm,280,TA10
S0029,T04,LDIAM,0.0,mm,280,TA10
S0029,,SUMDIAM,0.0,mm,280,TA10
S0029,T01,LDIAM,0.0,mm,308,TA11
S0029,T02,LDIAM,0.0,mm,308,TA11
S0029,T03,LDIAM,0.0,mm,308,TA11
S0029,T04,LDIAM,0.0,mm,308,TA11
S0029,,SUMDIAM,0.0,mm,308,TA11
S0029,T01,LDIAM,0.0,mm,336,TA12
S0029,T02,LDIAM,0.0,mm,336,TA12
S0029,T03,LDIAM,0.0,mm,336,TA12
S0029,T04,LDIAM,0.0,mm,336,TA12
S0029,,SUMDIAM,0.0,mm,336,TA12
S0029,T01,LDIAM,0.0,mm,364,TA13
S0029,T02,LDIAM,0.0,mm,364,TA13
S0029,T03,LDIAM,0.0,mm,364,TA13
S0029,T04,LDIAM,0.0,mm,364,TA13
S0029,,SUMDIAM,0.0,mm,364,TA13
S0029,T01,LDIAM,0.0,mm,392,TA14
S0029,T02,LDIAM,0.0,mm,392,TA14
S0029,T03,LDIAM,0.0,mm,392,TA14
S0029,T04,LDIAM,0.0,mm,392,TA14
S0029,,SUMDIAM,0.0,mm,392,TA14
S0029,T01,LDIAM,0.0,mm,420,TA15
S0029,T02,LDIAM,0.0,mm,420,TA15
S0029,T03,LDIAM,0.0,mm,420,TA15
S0029,T04,LDIAM,0.0,mm,420,TA15
S0029,,SUMDIAM,0.0,mm,420,TA15
S0029,T01,LDIAM,0.0,mm,448,TA16
S0029,T02,LDIAM,0.0,mm,448,TA16
S0029,T03,LDIAM,0.0,mm,448,TA16
S0029,T04,LDIAM,0.0,mm,448,TA16
S0029,,SUMDIAM,0.0,mm,448,TA16
S0029,T01,LDIAM,0.0,mm,476,TA17
S0029,T02,LDIAM,0.0,mm,476,TA17
S0029,T03,LDIAM,0.0,mm,476,TA17
S0029,T04,LDIAM,0.0,mm,476,TA17
S0029,,SUMDIAM,0.0,mm,476,TA17
S0029,T01,LDIAM,0.0,mm,504,TA18
S0029,T02,LDIAM,0.0,mm,504,TA18
S0029,T03,LDIAM,0.0,mm,504,TA18
S0029,T04,LDIAM,0.0,mm,504,TA18
S0029,,SUMDIAM,0.0,mm,504,TA18
S0029,T01,LDIAM,0.0,mm,532,TA19
S0029,T02,LDIAM,0.0,mm,532,TA19
S0029,T03,LDIAM,0.0,mm,532,TA19
S0029,T04,LDIAM,0.0,mm,532,TA19
S0029,,SUMDIAM,0.0,mm,532,TA19
S0029,T01,LDIAM,0.0,mm,560,TA20
S0029,T02,LDIAM,0.0,mm,560,TA20
S0029,T03,LDIAM,0.0,mm,560,TA20
S0029,T04,LDIAM,0.0,mm,560,TA20
S0029,,SUMDIAM,0.0,mm,560,TA20
S0029,T01,LDIAM,0.0,mm,588,TA21
S0029,T02,LDIAM,0.0,mm,588,TA21
S0029,T03,LDIAM,0.0,mm,588,TA21
S0029,T04,LDIAM,0.0,mm,588,TA21
S0029,,SUMDIAM,0.0,mm,588,TA21
S0029,T01,LDIAM,0.0,mm,616,TA22
S0029,T02,LDIAM,0.0,mm,616,TA22
S0029,T03,LDIAM,0.0,mm,616,TA22
S0029,T04,LDIAM,0.0,mm,616,TA22
S0029,,SUMDIAM,0.0,mm,616,TA22
S0029,T01,LDIAM,0.0,mm,644,TA23
S0029,T02,LDIAM,0.0,mm,644,TA23
S0029,T03,LDIAM,0.0,mm,644,TA23
S0029,T04,LDIAM,0.0,mm,644,TA23
S0029,,SUMDIAM,0.0,mm,644,TA23
S0029,T01,LDIAM,0.0,mm,672,TA24
S0029,T02,LDIAM,0.0,mm,672,TA24
S0029,T03,LDIAM,0.0,mm,672,TA24
S0029,T04,LDIAM,0.0,mm,672,TA24
S0029,,SUMDIAM,0.0,mm,672,TA24
S0029,T01,LDIAM,0.0,mm,700,TA25
S0029,T02,LDIAM,0.0,mm,700,TA25
S0029,T03,LDIAM,0.0,mm,700,TA25
S0029,T04,LDIAM,0.0,mm,700,TA25
S0029,,SUMDIAM,0.0,mm,700,TA25
S0029,T01,LDIAM,0.0,mm,728,TA26
S0029,T02,LDIAM,0.0,mm,728,TA26
S0029,T03,LDIAM,0.0,mm,728,TA26
S0029,T04,LDIAM,0.0,mm,728,TA26
S0029,,SUMDIAM,0.0,mm,728,TA26
S0029,T01,LDIAM,0.0,mm,756,TA27
S0029,T02,LDIAM,0.0,mm,756,TA27
S0029,T03,LDIAM,0.0,mm,756,TA27
S0029,T04,LDIAM,0.0,mm,756,TA27
S0029,,SUMDIAM,0.0,mm,756,TA27
S0029,T01,LDIAM,0.0,mm,784,TA28
S0029,T02,LDIAM,0.0,mm,784,TA28
S0029,T03,LDIAM,0.0,mm,784,TA28
S0029,T04,LDIAM,0.0,mm,784,TA28
S0029,,SUMDIAM,0.0,mm,784,TA28
S0029,T01,LDIAM,0.0,mm,812,TA29
S0029,T02,LDIAM,0.0,mm,812,TA29
S0029,T03,LDIAM,0.0,mm,812,TA29
S0029,T04,LDIAM,0.0,mm,812,TA29
S0029,,SUMDIAM,0.0,mm,812,TA29
S0030,T01,LDIAM,57.0,mm,0,BASELINE
S0030,T02,LDIAM,28.2,mm,0,BASELINE
S0030,T03,LDIAM,44.8,mm,0,BASELINE
S0030,T04,LDIAM,46.9,mm,0,BASELINE
S0030,T05,LDIAM,17.4,mm,0,BASELINE
S0030,,SUMDIAM,194.3,mm,0,BASELINE
S0030,T01,LDIAM,33.2,mm,28,TA1
S0030,T02,LDIAM,16.4,mm,28,TA1
S0030,T03,LDIAM,26.1,mm,28,TA1
S0030,T04,LDIAM,27.3,mm,28,TA1
S0030,T05,LDIAM,10.1,mm,28,TA1
S0030,,SUMDIAM,113.2,mm,28,TA1
S0030,T01,LDIAM,9.4,mm,56,TA2
S0030,T02,LDIAM,4.7,mm,56,TA2
S0030,T03,LDIAM,7.4,mm,56,TA2
S0030,T04,LDIAM,7.8,mm,56,TA2
S0030,T05,LDIAM,2.9,mm,56,TA2
S0030,,SUMDIAM,32.1,mm,56,TA2
S0030,T01,LDIAM,9.4,mm,84,TA3
S0030,T02,LDIAM,4.7,mm,84,TA3
S0030,T03,LDIAM,7.4,mm,84,TA3
S0030,T04,LDIAM,7.8,mm,84,TA3
S0030,T05,LDIAM,2.9,mm,84,TA3
S0030,,SUMDIAM,32.1,mm,84,TA3
S0030,T01,LDIAM,9.4,mm,112,TA4
S0030,T02,LDIAM,4.7,mm,112,TA4
S0030,T03,LDIAM,7.4,mm,112,TA4
S0030,T04,LDIAM,7.8,mm,112,TA4
S0030,T05,LDIAM,2.9,mm,112,TA4
S0030,,SUMDIAM,32.1,mm,112,TA4
S0030,T01,LDIAM,9.4,mm,140,TA5
S0030,T02,LDIAM,4.7,mm,140,TA5
S0030,T03,LDIAM,7.4,mm,140,TA5
S0030,T04,LDIAM,7.8,mm,140,TA5
S0030,T05,LDIAM,2.9,mm,140,TA5
S0030,,SUMDIAM,32.1,mm,140,TA5
S0030,T01,LDIAM,9.4,mm,168,TA6
S0030,T02,LDIAM,4.7,mm,168,TA6
S0030,T03,LDIAM,7.4,mm,168,TA6
S0030,T04,LDIAM,7.8,mm,168,TA6
S0030,T05,LDIAM,2.9,mm,168,TA6
S0030,,SUMDIAM,32.1,mm,168,TA6
S0030,T01,LDIAM,9.4,mm,196,TA7
S0030,T02,LDIAM,4.7,mm,196,TA7
S0030,T03,LDIAM,7.4,mm,196,TA7
S0030,T04,LDIAM,7.8,mm,196,TA7
S0030,T05,LDIAM,2.9,mm,196,TA7
S0030,,SUMDIAM,32.1,mm,196,TA7
S0030,T01,LDIAM,9.4,mm,224,TA8
S0030,T02,LDIAM,4.7,mm,224,TA8
S0030,T03,LDIAM,7.4,mm,224,TA8
S0030,T04,LDIAM,7.8,mm,224,TA8
S0030,T05,LDIAM,2.9,mm,224,TA8
S0030,,SUMDIAM,32.1,mm,224,TA8
S0030,T01,LDIAM,9.4,mm,252,TA9
S0030,T02,LDIAM,4.7,mm,252,TA9
S0030,T03,LDIAM,7.4,mm,252,TA9
S0030,T04,LDIAM,7.8,mm,252,TA9
S0030,T05,LDIAM,2.9,mm,252,TA9
S0030,,SUMDIAM,32.1,mm,252,TA9
S0030,T01,LDIAM,9.4,mm,280,TA10
S0030,T02,LDIAM,4.7,mm,280,TA10
S0030,T03,LDIAM,7.4,mm,280,TA10
S0030,T04,LDIAM,7.8,mm,280,TA10
S0030,T05,LDIAM,2.9,mm,280,TA10
S0030,,SUMDIAM,32.1,mm,280,TA10
S0030,T01,LDIAM,9.4,mm,308,TA11
S0030,T02,LDIAM,4.7,mm,308,TA11
S0030,T03,LDIAM,7.4,mm,308,TA11
S0030,T04,LDIAM,7.8,mm,308,TA11
S0030,T05,LDIAM,2.9,mm,308,TA11
S0030,,SUMDIAM,32.1,mm,308,TA11
S0030,T01,LDIAM,9.4,mm,336,TA12
S0030,T02,LDIAM,4.7,mm,336,TA12
S0030,T03,LDIAM,7.4,mm,336,TA12
S0030,T04,LDIAM,7.8,mm,336,TA12
S0030,T05,LDIAM,2.9,mm,336,TA12
S0030,,SUMDIAM,32.1,mm,336,TA12
S0030,T01,LDIAM,9.4,mm,364,TA13
S0030,T02,LDIAM,4.7,mm,364,TA13
S0030,T03,LDIAM,7.4,mm,364,TA13
S0030,T04,LDIAM,7.8,mm,364,TA13
S0030,T05,LDIAM,2.9,mm,364,TA13
S0030,,SUMDIAM,32.1,mm,364,TA13
S0030,T01,LDIAM,9.4,mm,392,TA14
S0030,T02,LDIAM,4.7,mm,392,TA14
S0030,T03,LDIAM,7.4,mm,392,TA14
S0030,T04,LDIAM,7.8,mm,392,TA14
S0030,T05,LDIAM,2.9,mm,392,TA14
S0030,,SUMDIAM,32.1,mm,392,TA14
S0030,T01,LDIAM,9.4,mm,420,TA15
S0030,T02,LDIAM,4.7,mm,420,TA15
S0030,T03,LDIAM,7.4,mm,420,TA15
S0030,T04,LDIAM,7.8,mm,420,TA15
S0030,T05,LDIAM,2.9,mm,420,TA15
S0030,,SUMDIAM,32.1,mm,420,TA15
S0030,T01,LDIAM,9.4,mm,448,TA16
S0030,T02,LDIAM,4.7,mm,448,TA16
S0030,T03,LDIAM,7.4,mm,448,TA16
S0030,T04,LDIAM,7.8,mm,448,TA16
S0030,T05,LDIAM,2.9,mm,448,TA16
S0030,,SUMDIAM,32.1,mm,448,TA16
S0030,T01,LDIAM,9.4,mm,476,TA17
S0030,T02,LDIAM,4.7,mm,476,TA17
S0030,T03,LDIAM,7.4,mm,476,TA17
S0030,T04,LDIAM,7.8,mm,476,TA17
S0030,T05,LDIAM,2.9,mm,476,TA17
S0030,,SUMDIAM,32.1,mm,476,TA17
S0030,T01,LDIAM,9.4,mm,504,TA18
S0030,T02,LDIAM,4.7,mm,504,TA18
S0030,T03,LDIAM,7.4,mm,504,TA18
S0030,T04,LDIAM,7.8,mm,504,TA18
S0030,T05,LDIAM,2.9,mm,504,TA18
S0030,,SUMDIAM,32.1,mm,504,TA18
S0030,T01,LDIAM,9.4,mm,532,TA19
S0030,T02,LDIAM,4.7,mm,532,TA19
S0030,T03,LDIAM,7.4,mm,532,TA19
S0030,T04,LDIAM,7.8,mm,532,TA19
S0030,T05,LDIAM,2.9,mm,532,TA19
S0030,,SUMDIAM,32.1,mm,532,TA19
S0030,T01,LDIAM,9.4,mm,560,TA20
S0030,T02,LDIAM,4.7,mm,560,TA20
S0030,T03,LDIAM,7.4,mm,560,TA20
S0030,T04,LDIAM,7.8,mm,560,TA20
S0030,T05,LDIAM,2.9,mm,560,TA20
S0030,,SUMDIAM,32.1,mm,560,TA20
S0030,T01,LDIAM,9.4,mm,588,TA21
S0030,T02,LDIAM,4.7,mm,588,TA21
S0030,T03,LDIAM,7.4,mm,588,TA21
S0030,T04,LDIAM,7.8,mm,588,TA21
S0030,T05,LDIAM,2.9,mm,588,TA21
S0030,,SUMDIAM,32.1,mm,588,TA21
S0030,T01,LDIAM,9.4,mm,616,TA22
S0030,T02,LDIAM,4.7,mm,616,TA22
S0030,T03,LDIAM,7.4,mm,616,TA22
S0030,T04,LDIAM,7.8,mm,616,TA22
S0030,T05,LDIAM,2.9,mm,616,TA22
S0030,,SUMDIAM,32.1,mm,616,TA22
S0030,T01,LDIAM,9.4,mm,644,TA23
S0030,T02,LDIAM,4.7,mm,644,TA23
S0030,T03,LDIAM,7.4,mm,644,TA23
S0030,T04,LDIAM,7.8,mm,644,TA23
S0030,T05,LDIAM,2.9,mm,644,TA23
S0030,,SUMDIAM,32.1,mm,644,TA23
S0030,T01,LDIAM,9.4,mm,672,TA24
S0030,T02,LDIAM,4.7,mm,672,TA24
S0030,T03,LDIAM,7.4,mm,672,TA24
S0030,T04,LDIAM,7.8,mm,672,TA24
S0030,T05,LDIAM,2.9,mm,672,TA24
S0030,,SUMDIAM,32.1,mm,672,TA24
S0030,T01,LDIAM,9.4,mm,700,TA25
S0030,T02,LDIAM,4.7,mm,700,TA25
S0030,T03,LDIAM,7.4,mm,700,TA25
S0030,T04,LDIAM,7.8,mm,700,TA25
S0030,T05,LDIAM,2.9,mm,700,TA25
S0030,,SUMDIAM,32.1,mm,700,TA25
S0030,T01,LDIAM,9.4,mm,728,TA26
S0030,T02,LDIAM,4.7,mm,728,TA26
S0030,T03,LDIAM,7.4,mm,728,TA26
S0030,T04,LDIAM,7.8,mm,728,TA26
S0030,T05,LDIAM,2.9,mm,728,TA26
S0030,,SUMDIAM,32.1,mm,728,TA26
S0030,T01,LDIAM,9.4,mm,756,TA27
S0030,T02,LDIAM,4.7,mm,756,TA27
S0030,T03,LDIAM,7.4,mm,756,TA27
S0030,T04,LDIAM,7.8,mm,756,TA27
S0030,T05,LDIAM,2.9,mm,756,TA27
S0030,,SUMDIAM,32.1,mm,756,TA27
S0030,T01,LDIAM,9.4,mm,784,TA28
S0030,T02,LDIAM,4.7,mm,784,TA28
S0030,T03,LDIAM,7.4,mm,784,TA28
S0030,T04,LDIAM,7.8,mm,784,TA28
S0030,T05,LDIAM,2.9,mm,784,TA28
S0030,,SUMDIAM,32.1,mm,784,TA28
S0030,T01,LDIAM,9.4,mm,812,TA29
S0030,T02,LDIAM,4.7,mm,812,TA29
S0030,T03,LDIAM,7.4,mm,812,TA29
S0030,T04,LDIAM,7.8,mm,812,TA29
S0030,T05,LDIAM,2.9,mm,812,TA29
S0030,,SUMDIAM,32.1,mm,812,TA29
S0030,T01,LDIAM,9.4,mm,840,TA30
S0030,T02,LDIAM,4.7,mm,840,TA30
S0030,T03,LDIAM,7.4,mm,840,TA30
S0030,T04,LDIAM,7.8,mm,840,TA30
S0030,T05,LDIAM,2.9,mm,840,TA30
S0030,,SUMDIAM,32.1,mm,840,TA30
S0030,T01,LDIAM,9.4,mm,868,TA31
S0030,T02,LDIAM,4.7,mm,868,TA31
S0030,T03,LDIAM,7.4,mm,868,TA31
S0030,T04,LDIAM,7.8,mm,868,TA31
S0030,T05,LDIAM,2.9,mm,868,TA31
S0030,,SUMDIAM,32.1,mm,868,TA31
S0030,T01,LDIAM,9.4,mm,896,TA32
S0030,T02,LDIAM,4.7,mm,896,TA32
S0030,T03,LDIAM,7.4,mm,896,TA32
S0030,T04,LDIAM,7.8,mm,896,TA32
S0030,T05,LDIAM,2.9,mm,896,TA32
S0030,,SUMDIAM,32.1,mm,896,TA32
S0030,T01,LDIAM,9.4,mm,924,TA33
S0030,T02,LDIAM,4.7,mm,924,TA33
S0030,T03,LDIAM,7.4,mm,924,TA33
S0030,T04,LDIAM,7.8,mm,924,TA33
S0030,T05,LDIAM,2.9,mm,924,TA33
S0030,,SUMDIAM,32.1,mm,924,TA33
S0030,T01,LDIAM,9.4,mm,952,TA34
S0030,T02,LDIAM,4.7,mm,952,TA34
S0030,T03,LDIAM,7.4,mm,952,TA34
S0030,T04,LDIAM,7.8,mm,952,TA34
S0030,T05,LDIAM,2.9,mm,952,TA34
S0030,,SUMDIAM,32.1,mm,952,TA34
S0030,T01,LDIAM,9.4,mm,980,TA35
S0030,T02,LDIAM,4.7,mm,980,TA35
S0030,T03,LDIAM,7.4,mm,980,TA35
S0030,T04,LDIAM,7.8,mm,980,TA35
S0030,T05,LDIAM,2.9,mm,980,TA35
S0030,,SUMDIAM,32.1,mm,980,TA35
S0030,T01,LDIAM,9.4,mm,1008,TA36
S0030,T02,LDIAM,4.7,mm,1008,TA36
S0030,T03,LDIAM,7.4,mm,1008,TA36
S0030,T04,LDIAM,7.8,mm,1008,TA36
S0030,T05,LDIAM,2.9,mm,1008,TA36
S0030,,SUMDIAM,32.1,mm,1008,TA36
S0030,T01,LDIAM,9.4,mm,1036,TA37
S0030,T02,LDIAM,4.7,mm,1036,TA37
S0030,T03,LDIAM,7.4,mm,1036,TA37
S0030,T04,LDIAM,7.8,mm,1036,TA37
S0030,T05,LDIAM,2.9,mm,1036,TA37
S0030,,SUMDIAM,32.1,mm,1036,TA37
S0030,T01,LDIAM,9.4,mm,1064,TA38
S0030,T02,LDIAM,4.7,mm,1064,TA38
S0030,T03,LDIAM,7.4,mm,1064,TA38
S0030,T04,LDIAM,7.8,mm,1064,TA38
S0030,T05,LDIAM,2.9,mm,1064,TA38
S0030,,SUMDIAM,32.1,mm,1064,TA38
S0030,T01,LDIAM,9.4,mm,1092,TA39
S0030,T02,LDIAM,4.7,mm,1092,TA39
S0030,T03,LDIAM,7.4,mm,1092,TA39
S0030,T04,LDIAM,7.8,mm,1092,TA39
S0030,T05,LDIAM,2.9,mm,1092,TA39
S0030,,SUMDIAM,32.1,mm,1092,TA39
S0034,T01,LDIAM,32.0,mm,0,BASELINE
S0034,T02,LDIAM,20.2,mm,0,BASELINE
S0034,T03,LDIAM,46.3,mm,0,BASELINE
S0034,T04,LDIAM,29.4,mm,0,BASELINE
S0034,,SUMDIAM,127.9,mm,0,BASELINE
S0034,T01,LDIAM,24.7,mm,28,TA1
S0034,T02,LDIAM,15.6,mm,28,TA1
S0034,T03,LDIAM,35.8,mm,28,TA1
S0034,T04,LDIAM,22.7,mm,28,TA1
S0034,,SUMDIAM,98.8,mm,28,TA1
S0034,T01,LDIAM,17.5,mm,56,TA2
S0034,T02,LDIAM,11.0,mm,56,TA2
S0034,T03,LDIAM,25.3,mm,56,TA2
S0034,T04,LDIAM,16.0,mm,56,TA2
S0034,,SUMDIAM,69.8,mm,56,TA2
S0034,T01,LDIAM,17.5,mm,84,TA3
S0034,T02,LDIAM,11.0,mm,84,TA3
S0034,T03,LDIAM,25.3,mm,84,TA3
S0034,T04,LDIAM,16.0,mm,84,TA3
S0034,,SUMDIAM,69.8,mm,84,TA3
S0034,T01,LDIAM,17.5,mm,112,TA4
S0034,T02,LDIAM,11.0,mm,112,TA4
S0034,T03,LDIAM,25.3,mm,112,TA4
S0034,T04,LDIAM,16.0,mm,112,TA4
S0034,,SUMDIAM,69.8,mm,112,TA4
S0034,T01,LDIAM,17.5,mm,140,TA5
S0034,T02,LDIAM,11.0,mm,140,TA5
S0034,T03,LDIAM,25.3,mm,140,TA5
S0034,T04,LDIAM,16.0,mm,140,TA5
S0034,,SUMDIAM,69.8,mm,140,TA5
S0034,T01,LDIAM,17.5,mm,168,TA6
S0034,T02,LDIAM,11.0,mm,168,TA6
S0034,T03,LDIAM,25.3,mm,168,TA6
S0034,T04,LDIAM,16.0,mm,168,TA6
S0034,,SUMDIAM,69.8,mm,168,TA6
S0034,T01,LDIAM,17.5,mm,196,TA7
S0034,T02,LDIAM,11.0,mm,196,TA7
S0034,T03,LDIAM,25.3,mm,196,TA7
S0034,T04,LDIAM,16.0,mm,196,TA7
S0034,,SUMDIAM,69.8,mm,196,TA7
S0034,T01,LDIAM,17.5,mm,224,TA8
S0034,T02,LDIAM,11.0,mm,224,TA8
S0034,T03,LDIAM,25.3,mm,224,TA8
S0034,T04,LDIAM,16.0,mm,224,TA8
S0034,,SUMDIAM,69.8,mm,224,TA8
S0034,T01,LDIAM,17.5,mm,252,TA9
S0034,T02,LDIAM,11.0,mm,252,TA9
S0034,T03,LDIAM,25.3,mm,252,TA9
S0034,T04,LDIAM,16.0,mm,252,TA9
S0034,,SUMDIAM,69.8,mm,252,TA9
S0034,T01,LDIAM,17.5,mm,280,TA10
S0034,T02,LDIAM,11.0,mm,280,TA10
S0034,T03,LDIAM,25.3,mm,280,TA10
S0034,T04,LDIAM,16.0,mm,280,TA10
S0034,,SUMDIAM,69.8,mm,280,TA10
S0034,T01,LDIAM,17.5,mm,308,TA11
S0034,T02,LDIAM,11.0,mm,308,TA11
S0034,T03,LDIAM,25.3,mm,308,TA11
S0034,T04,LDIAM,16.0,mm,308,TA11
S0034,,SUMDIAM,69.8,mm,308,TA11
S0034,T01,LDIAM,17.5,mm,336,TA12
S0034,T02,LDIAM,11.0,mm,336,TA12
S0034,T03,LDIAM,25.3,mm,336,TA12
S0034,T04,LDIAM,16.0,mm,336,TA12
S0034,,SUMDIAM,69.8,mm,336,TA12
S0034,T01,LDIAM,17.5,mm,364,TA13
S0034,T02,LDIAM,11.0,mm,364,TA13
S0034,T03,LDIAM,25.3,mm,364,TA13
S0034,T04,LDIAM,16.0,mm,364,TA13
S0034,,SUMDIAM,69.8,mm,364,TA13
S0034,T01,LDIAM,17.5,mm,392,TA14
S0034,T02,LDIAM,11.0,mm,392,TA14
S0034,T03,LDIAM,25.3,mm,392,TA14
S0034,T04,LDIAM,16.0,mm,392,TA14
S0034,,SUMDIAM,69.8,mm,392,TA14
S0034,T01,LDIAM,17.5,mm,420,TA15
S0034,T02,LDIAM,11.0,mm,420,TA15
S0034,T03,LDIAM,25.3,mm,420,TA15
S0034,T04,LDIAM,16.0,mm,420,TA15
S0034,,SUMDIAM,69.8,mm,420,TA15
S0034,T01,LDIAM,17.5,mm,448,TA16
S0034,T02,LDIAM,11.0,mm,448,TA16
S0034,T03,LDIAM,25.3,mm,448,TA16
S0034,T04,LDIAM,16.0,mm,448,TA16
S0034,,SUMDIAM,69.8,mm,448,TA16
S0034,T01,LDIAM,17.5,mm,476,TA17
S0034,T02,LDIAM,11.0,mm,476,TA17
S0034,T03,LDIAM,25.3,mm,476,TA17
S0034,T04,LDIAM,16.0,mm,476,TA17
S0034,,SUMDIAM,69.8,mm,476,TA17
S0034,T01,LDIAM,17.5,mm,504,TA18
S0034,T02,LDIAM,11.0,mm,504,TA18
S0034,T03,LDIAM,25.3,mm,504,TA18
S0034,T04,LDIAM,16.0,mm,504,TA18
S0034,,SUMDIAM,69.8,mm,504,TA18
S0034,T01,LDIAM,17.5,mm,532,TA19
S0034,T02,LDIAM,11.0,mm,532,TA19
S0034,T03,LDIAM,25.3,mm,532,TA19
S0034,T04,LDIAM,16.0,mm,532,TA19
S0034,,SUMDIAM,69.8,mm,532,TA19
S0034,T01,LDIAM,17.5,mm,560,TA20
S0034,T02,LDIAM,11.0,mm,560,TA20
S0034,T03,LDIAM,25.3,mm,560,TA20
S0034,T04,LDIAM,16.0,mm,560,TA20
S0034,,SUMDIAM,69.8,mm,560,TA20
S0034,T01,LDIAM,17.5,mm,588,TA21
S0034,T02,LDIAM,11.0,mm,588,TA21
S0034,T03,LDIAM,25.3,mm,588,TA21
S0034,T04,LDIAM,16.0,mm,588,TA21
S0034,,SUMDIAM,69.8,mm,588,TA21
S0034,T01,LDIAM,17.5,mm,616,TA22
S0034,T02,LDIAM,11.0,mm,616,TA22
S0034,T03,LDIAM,25.3,mm,616,TA22
S0034,T04,LDIAM,16.0,mm,616,TA22
S0034,,SUMDIAM,69.8,mm,616,TA22
S0034,T01,LDIAM,17.5,mm,644,TA23
S0034,T02,LDIAM,11.0,mm,644,TA23
S0034,T03,LDIAM,25.3,mm,644,TA23
S0034,T04,LDIAM,16.0,mm,644,TA23
S0034,,SUMDIAM,69.8,mm,644,TA23
S0034,T01,LDIAM,17.5,mm,672,TA24
S0034,T02,LDIAM,11.0,mm,672,TA24
S0034,T03,LDIAM,25.3,mm,672,TA24
S0034,T04,LDIAM,16.0,mm,672,TA24
S0034,,SUMDIAM,69.8,mm,672,TA24
S0034,T01,LDIAM,17.5,mm,700,TA25
S0034,T02,LDIAM,11.0,mm,700,TA25
S0034,T03,LDIAM,25.3,mm,700,TA25
S0034,T04,LDIAM,16.0,mm,700,TA25
S0034,,SUMDIAM,69.8,mm,700,TA25
S0034,T01,LDIAM,17.5,mm,728,TA26
S0034,T02,LDIAM,11.0,mm,728,TA26
S0034,T03,LDIAM,25.3,mm,728,TA26
S0034,T04,LDIAM,16.0,mm,728,TA26
S0034,,SUMDIAM,69.8,mm,728,TA26
S0034,T01,LDIAM,17.5,mm,756,TA27
S0034,T02,LDIAM,11.0,mm,756,TA27
S0034,T03,LDIAM,25.3,mm,756,TA27
S0034,T04,LDIAM,16.0,mm,756,TA27
S0034,,SUMDIAM,69.8,mm,756,TA27
S0034,T01,LDIAM,17.5,mm,784,TA28
S0034,T02,LDIAM,11.0,mm,784,TA28
S0034,T03,LDIAM,25.3,mm,784,TA28
S0034,T04,LDIAM,16.0,mm,784,TA28
S0034,,SUMDIAM,69.8,mm,784,TA28
S0034,T01,LDIAM,17.5,mm,812,TA29
S0034,T02,LDIAM,11.0,mm,812,TA29
S0034,T03,LDIAM,25.3,mm,812,TA29
S0034,T04,LDIAM,16.0,mm,812,TA29
S0034,,SUMDIAM,69.8,mm,812,TA29
S0034,T01,LDIAM,17.5,mm,840,TA30
S0034,T02,LDIAM,11.0,mm,840,TA30
S0034,T03,LDIAM,25.3,mm,840,TA30
S0034,T04,LDIAM,16.0,mm,840,TA30
S0034,,SUMDIAM,69.8,mm,840,TA30
S0034,T01,LDIAM,17.5,mm,868,TA31
S0034,T02,LDIAM,11.0,mm,868,TA31
S0034,T03,LDIAM,25.3,mm,868,TA31
S0034,T04,LDIAM,16.0,mm,868,TA31
S0034,,SUMDIAM,69.8,mm,868,TA31
S0034,T01,LDIAM,17.5,mm,896,TA32
S0034,T02,LDIAM,11.0,mm,896,TA32
S0034,T03,LDIAM,25.3,mm,896,TA32
S0034,T04,LDIAM,16.0,mm,896,TA32
S0034,,SUMDIAM,69.8,mm,896,TA32
S0034,T01,LDIAM,17.5,mm,924,TA33
S0034,T02,LDIAM,11.0,mm,924,TA33
S0034,T03,LDIAM,25.3,mm,924,TA33
S0034,T04,LDIAM,16.0,mm,924,TA33
S0034,,SUMDIAM,69.8,mm,924,TA33
S0034,T01,LDIAM,17.5,mm,952,TA34
S0034,T02,LDIAM,11.0,mm,952,TA34
S0034,T03,LDIAM,25.3,mm,952,TA34
S0034,T04,LDIAM,16.0,mm,952,TA34
S0034,,SUMDIAM,69.8,mm,952,TA34
S0034,T01,LDIAM,17.5,mm,980,TA35
S0034,T02,LDIAM,11.0,mm,980,TA35
S0034,T03,LDIAM,25.3,mm,980,TA35
S0034,T04,LDIAM,16.0,mm,980,TA35
S0034,,SUMDIAM,69.8,mm,980,TA35
S0034,T01,LDIAM,17.5,mm,1008,TA36
S0034,T02,LDIAM,11.0,mm,1008,TA36
S0034,T03,LDIAM,25.3,mm,1008,TA36
S0034,T04,LDIAM,16.0,mm,1008,TA36
S0034,,SUMDIAM,69.8,mm,1008,TA36
S0034,T01,LDIAM,17.5,mm,1036,TA37
S0034,T02,LDIAM,11.0,mm,1036,TA37
S0034,T03,LDIAM,25.3,mm,1036,TA37
S0034,T04,LDIAM,16.0,mm,1036,TA37
S0034,,SUMDIAM,69.8,mm,1036,TA37
S0034,T01,LDIAM,17.5,mm,1064,TA38
S0034,T02,LDIAM,11.0,mm,1064,TA38
S0034,T03,LDIAM,25.3,mm,1064,TA38
S0034,T04,LDIAM,16.0,mm,1064,TA38
S0034,,SUMDIAM,69.8,mm,1064,TA38
S0034,T01,LDIAM,17.5,mm,1092,TA39
S0034,T02,LDIAM,11.0,mm,1092,TA39
S0034,T03,LDIAM,25.3,mm,1092,TA39
S0034,T04,LDIAM,16.0,mm,1092,TA39
S0034,,SUMDIAM,69.8,mm,1092,TA39
S0034,T01,LDIAM,17.5,mm,1120,TA40
S0034,T02,LDIAM,11.0,mm,1120,TA40
S0034,T03,LDIAM,25.3,mm,1120,TA40
S0034,T04,LDIAM,16.0,mm,1120,TA40
S0034,,SUMDIAM,69.8,mm,1120,TA40
S0034,T01,LDIAM,17.5,mm,1148,TA41
S0034,T02,LDIAM,11.0,mm,1148,TA41
S0034,T03,LDIAM,25.3,mm,1148,TA41
S0034,T04,LDIAM,16.0,mm,1148,TA41
S0034,,SUMDIAM,69.8,mm,1148,TA41
S0034,T01,LDIAM,17.5,mm,1176,TA42
S0034,T02,LDIAM,11.0,mm,1176,TA42
S0034,T03,LDIAM,25.3,mm,1176,TA42
S0034,T04,LDIAM,16.0,mm,1176,TA42
S0034,,SUMDIAM,69.8,mm,1176,TA42
S0034,T01,LDIAM,17.5,mm,1204,TA43
S0034,T02,LDIAM,11.0,mm,1204,TA43
S0034,T03,LDIAM,25.3,mm,1204,TA43
S0034,T04,LDIAM,16.0,mm,1204,TA43
S0034,,SUMDIAM,69.8,mm,1204,TA43
S0034,T01,LDIAM,17.5,mm,1232,TA44
S0034,T02,LDIAM,11.0,mm,1232,TA44
S0034,T03,LDIAM,25.3,mm,1232,TA44
S0034,T04,LDIAM,16.0,mm,1232,TA44
S0034,,SUMDIAM,69.8,mm,1232,TA44
S0034,T01,LDIAM,17.5,mm,1260,TA45
S0034,T02,LDIAM,11.0,mm,1260,TA45
S0034,T03,LDIAM,25.3,mm,1260,TA45
S0034,T04,LDIAM,16.0,mm,1260,TA45
S0034,,SUMDIAM,69.8,mm,1260,TA45
S0034,T01,LDIAM,17.5,mm,1288,TA46
S0034,T02,LDIAM,11.0,mm,1288,TA46
S0034,T03,LDIAM,25.3,mm,1288,TA46
S0034,T04,LDIAM,16.0,mm,1288,TA46
S0034,,SUMDIAM,69.8,mm,1288,TA46
S0034,T01,LDIAM,17.5,mm,1316,TA47
S0034,T02,LDIAM,11.0,mm,1316,TA47
S0034,T03,LDIAM,25.3,mm,1316,TA47
S0034,T04,LDIAM,16.0,mm,1316,TA47
S0034,,SUMDIAM,69.8,mm,1316,TA47
S0034,T01,LDIAM,17.5,mm,1344,TA48
S0034,T02,LDIAM,11.0,mm,1344,TA48
S0034,T03,LDIAM,25.3,mm,1344,TA48
S0034,T04,LDIAM,16.0,mm,1344,TA48
S0034,,SUMDIAM,69.8,mm,1344,TA48
S0034,T01,LDIAM,17.5,mm,1372,TA49
S0034,T02,LDIAM,11.0,mm,1372,TA49
S0034,T03,LDIAM,25.3,mm,1372,TA49
S0034,T04,LDIAM,16.0,mm,1372,TA49
S0034,,SUMDIAM,69.8,mm,1372,TA49
S0034,T01,LDIAM,17.5,mm,1400,TA50
S0034,T02,LDIAM,11.0,mm,1400,TA50
S0034,T03,LDIAM,25.3,mm,1400,TA50
S0034,T04,LDIAM,16.0,mm,1400,TA50
S0034,,SUMDIAM,69.8,mm,1400,TA50
S0034,T01,LDIAM,17.5,mm,1428,TA51
S0034,T02,LDIAM,11.0,mm,1428,TA51
S0034,T03,LDIAM,25.3,mm,1428,TA51
S0034,T04,LDIAM,16.0,mm,1428,TA51
S0034,,SUMDIAM,69.8,mm,1428,TA51
S0034,T01,LDIAM,17.5,mm,1456,TA52
S0034,T02,LDIAM,11.0,mm,1456,TA52
S0034,T03,LDIAM,25.3,mm,1456,TA52
S0034,T04,LDIAM,16.0,mm,1456,TA52
S0034,,SUMDIAM,69.8,mm,1456,TA52
S0034,T01,LDIAM,17.5,mm,1484,TA53
S0034,T02,LDIAM,11.0,mm,1484,TA53
S0034,T03,LDIAM,25.3,mm,1484,TA53
S0034,T04,LDIAM,16.0,mm,1484,TA53
S0034,,SUMDIAM,69.8,mm,1484,TA53
S0034,T01,LDIAM,17.5,mm,1512,TA54
S0034,T02,LDIAM,11.0,mm,1512,TA54
S0034,T03,LDIAM,25.3,mm,1512,TA54
S0034,T04,LDIAM,16.0,mm,1512,TA54
S0034,,SUMDIAM,69.8,mm,1512,TA54
S0034,T01,LDIAM,17.5,mm,1540,TA55
S0034,T02,LDIAM,11.0,mm,1540,TA55
S0034,T03,LDIAM,25.3,mm,1540,TA55
S0034,T04,LDIAM,16.0,mm,1540,TA55
S0034,,SUMDIAM,69.8,mm,1540,TA55
S0034,T01,LDIAM,17.5,mm,1568,TA56
S0034,T02,LDIAM,11.0,mm,1568,TA56
S0034,T03,LDIAM,25.3,mm,1568,TA56
S0034,T04,LDIAM,16.0,mm,1568,TA56
S0034,,SUMDIAM,69.8,mm,1568,TA56
S0034,T01,LDIAM,17.5,mm,1596,TA57
S0034,T02,LDIAM,11.0,mm,1596,TA57
S0034,T03,LDIAM,25.3,mm,1596,TA57
S0034,T04,LDIAM,16.0,mm,1596,TA57
S0034,,SUMDIAM,69.8,mm,1596,TA57
S0034,T01,LDIAM,17.5,mm,1624,TA58
S0034,T02,LDIAM,11.0,mm,1624,TA58
S0034,T03,LDIAM,25.3,mm,1624,TA58
S0034,T04,LDIAM,16.0,mm,1624,TA58
S0034,,SUMDIAM,69.8,mm,1624,TA58
S0034,T01,LDIAM,17.5,mm,1652,TA59
S0034,T02,LDIAM,11.0,mm,1652,TA59
S0034,T03,LDIAM,25.3,mm,1652,TA59
S0034,T04,LDIAM,16.0,mm,1652,TA59
S0034,,SUMDIAM,69.8,mm,1652,TA59
S0034,T01,LDIAM,17.5,mm,1680,TA60
S0034,T02,LDIAM,11.0,mm,1680,TA60
S0034,T03,LDIAM,25.3,mm,1680,TA60
S0034,T04,LDIAM,16.0,mm,1680,TA60
S0034,,SUMDIAM,69.8,mm,1680,TA60
S0034,T01,LDIAM,17.5,mm,1708,TA61
S0034,T02,LDIAM,11.0,mm,1708,TA61
S0034,T03,LDIAM,25.3,mm,1708,TA61
S0034,T04,LDIAM,16.0,mm,1708,TA61
S0034,,SUMDIAM,69.8,mm,1708,TA61
S0034,T01,LDIAM,17.5,mm,1736,TA62
S0034,T02,LDIAM,11.0,mm,1736,TA62
S0034,T03,LDIAM,25.3,mm,1736,TA62
S0034,T04,LDIAM,16.0,mm,1736,TA62
S0034,,SUMDIAM,69.8,mm,1736,TA62
S0034,T01,LDIAM,17.5,mm,1764,TA63
S0034,T02,LDIAM,11.0,mm,1764,TA63
S0034,T03,LDIAM,25.3,mm,1764,TA63
S0034,T04,LDIAM,16.0,mm,1764,TA63
S0034,,SUMDIAM,69.8,mm,1764,TA63
S0034,T01,LDIAM,17.5,mm,1792,TA64
S0034,T02,LDIAM,11.0,mm,1792,TA64
S0034,T03,LDIAM,25.3,mm,1792,TA64
S0034,T04,LDIAM,16.0,mm,1792,TA64
S0034,,SUMDIAM,69.8,mm,1792,TA64
S0034,T01,LDIAM,17.5,mm,1820,TA65
S0034,T02,LDIAM,11.0,mm,1820,TA65
S0034,T03,LDIAM,25.3,mm,1820,TA65
S0034,T04,LDIAM,16.0,mm,1820,TA65
S0034,,SUMDIAM,69.8,mm,1820,TA65
S0034,T01,LDIAM,17.5,mm,1848,TA66
S0034,T02,LDIAM,11.0,mm,1848,TA66
S0034,T03,LDIAM,25.3,mm,1848,TA66
S0034,T04,LDIAM,16.0,mm,1848,TA66
S0034,,SUMDIAM,69.8,mm,1848,TA66
S0034,T01,LDIAM,17.5,mm,1876,TA67
S0034,T02,LDIAM,11.0,mm,1876,TA67
S0034,T03,LDIAM,25.3,mm,1876,TA67
S0034,T04,LDIAM,16.0,mm,1876,TA67
S0034,,SUMDIAM,69.8,mm,1876,TA67
S0034,T01,LDIAM,17.5,mm,1904,TA68
S0034,T02,LDIAM,11.0,mm,1904,TA68
S0034,T03,LDIAM,25.3,mm,1904,TA68
S0034,T04,LDIAM,16.0,mm,1904,TA68
S0034,,SUMDIAM,69.8,mm,1904,TA68
S0034,T01,LDIAM,17.5,mm,1932,TA69
S0034,T02,LDIAM,11.0,mm,1932,TA69
S0034,T03,LDIAM,25.3,mm,1932,TA69
S0034,T04,LDIAM,16.0,mm,1932,TA69
S0034,,SUMDIAM,69.8,mm,1932,TA69
S0034,T01,LDIAM,17.5,mm,1960,TA70
S0034,T02,LDIAM,11.0,mm,1960,TA70
S0034,T03,LDIAM,25.3,mm,1960,TA70
S0034,T04,LDIAM,16.0,mm,1960,TA70
S0034,,SUMDIAM,69.8,mm,1960,TA70
S0034,T01,LDIAM,17.5,mm,1988,TA71
S0034,T02,LDIAM,11.0,mm,1988,TA71
S0034,T03,LDIAM,25.3,mm,1988,TA71
S0034,T04,LDIAM,16.0,mm,1988,TA71
S0034,,SUMDIAM,69.8,mm,1988,TA71
S0034,T01,LDIAM,17.5,mm,2016,TA72
S0034,T02,LDIAM,11.0,mm,2016,TA72
S0034,T03,LDIAM,25.3,mm,2016,TA72
S0034,T04,LDIAM,16.0,mm,2016,TA72
S0034,,SUMDIAM,69.8,mm,2016,TA72
S0034,T01,LDIAM,17.5,mm,2044,TA73
S0034,T02,LDIAM,11.0,mm,2044,TA73
S0034,T03,LDIAM,25.3,mm,2044,TA73
S0034,T04,LDIAM,16.0,mm,2044,TA73
S0034,,SUMDIAM,69.8,mm,2044,TA73
S0034,T01,LDIAM,17.5,mm,2072,TA74
S0034,T02,LDIAM,11.0,mm,2072,TA74
S0034,T03,LDIAM,25.3,mm,2072,TA74
S0034,T04,LDIAM,16.0,mm,2072,TA74
S0034,,SUMDIAM,69.8,mm,2072,TA74
S0034,T01,LDIAM,17.5,mm,2100,TA75
S0034,T02,LDIAM,11.0,mm,2100,TA75
S0034,T03,LDIAM,25.3,mm,2100,TA75
S0034,T04,LDIAM,16.0,mm,2100,TA75
S0034,,SUMDIAM,69.8,mm,2100,TA75
S0034,T01,LDIAM,17.5,mm,2128,TA76
S0034,T02,LDIAM,11.0,mm,2128,TA76
S0034,T03,LDIAM,25.3,mm,2128,TA76
S0034,T04,LDIAM,16.0,mm,2128,TA76
S0034,,SUMDIAM,69.8,mm,2128,TA76
S0034,T01,LDIAM,17.5,mm,2156,TA77
S0034,T02,LDIAM,11.0,mm,2156,TA77
S0034,T03,LDIAM,25.3,mm,2156,TA77
S0034,T04,LDIAM,16.0,mm,2156,TA77
S0034,,SUMDIAM,69.8,mm,2156,TA77
S0034,T01,LDIAM,17.5,mm,2184,TA78
S0034,T02,LDIAM,11.0,mm,2184,TA78
S0034,T03,LDIAM,25.3,mm,2184,TA78
S0034,T04,LDIAM,16.0,mm,2184,TA78
S0034,,SUMDIAM,69.8,mm,2184,TA78
S0034,T01,LDIAM,17.5,mm,2212,TA79
S0034,T02,LDIAM,11.0,mm,2212,TA79
S0034,T03,LDIAM,25.3,mm,2212,TA79
S0034,T04,LDIAM,16.0,mm,2212,TA79
S0034,,SUMDIAM,69.8,mm,2212,TA79
S0034,T01,LDIAM,17.5,mm,2240,TA80
S0034,T02,LDIAM,11.0,mm,2240,TA80
S0034,T03,LDIAM,25.3,mm,2240,TA80
S0034,T04,LDIAM,16.0,mm,2240,TA80
S0034,,SUMDIAM,69.8,mm,2240,TA80
S0034,T01,LDIAM,17.5,mm,2268,TA81
S0034,T02,LDIAM,11.0,mm,2268,TA81
S0034,T03,LDIAM,25.3,mm,2268,TA81
S0034,T04,LDIAM,16.0,mm,2268,TA81
S0034,,SUMDIAM,69.8,mm,2268,TA81
S0034,T01,LDIAM,17.5,mm,2296,TA82
S0034,T02,LDIAM,11.0,mm,2296,TA82
S0034,T03,LDIAM,25.3,mm,2296,TA82
S0034,T04,LDIAM,16.0,mm,2296,TA82
S0034,,SUMDIAM,69.8,mm,2296,TA82
S0034,T01,LDIAM,17.5,mm,2324,TA83
S0034,T02,LDIAM,11.0,mm,2324,TA83
S0034,T03,LDIAM,25.3,mm,2324,TA83
S0034,T04,LDIAM,16.0,mm,2324,TA83
S0034,,SUMDIAM,69.8,mm,2324,TA83
S0034,T01,LDIAM,17.5,mm,2352,TA84
S0034,T02,LDIAM,11.0,mm,2352,TA84
S0034,T03,LDIAM,25.3,mm,2352,TA84
S0034,T04,LDIAM,16.0,mm,2352,TA84
S0034,,SUMDIAM,69.8,mm,2352,TA84
S0034,T01,LDIAM,17.5,mm,2380,TA85
S0034,T02,LDIAM,11.0,mm,2380,TA85
S0034,T03,LDIAM,25.3,mm,2380,TA85
S0034,T04,LDIAM,16.0,mm,2380,TA85
S0034,,SUMDIAM,69.8,mm,2380,TA85
S0034,T01,LDIAM,17.5,mm,2408,TA86
S0034,T02,LDIAM,11.0,mm,2408,TA86
S0034,T03,LDIAM,25.3,mm,2408,TA86
S0034,T04,LDIAM,16.0,mm,2408,TA86
S0034,,SUMDIAM,69.8,mm,2408,TA86
S0034,T01,LDIAM,17.5,mm,2436,TA87
S0034,T02,LDIAM,11.0,mm,2436,TA87
S0034,T03,LDIAM,25.3,mm,2436,TA87
S0034,T04,LDIAM,16.0,mm,2436,TA87
S0034,,SUMDIAM,69.8,mm,2436,TA87
S0034,T01,LDIAM,17.5,mm,2464,TA88
S0034,T02,LDIAM,11.0,mm,2464,TA88
S0034,T03,LDIAM,25.3,mm,2464,TA88
S0034,T04,LDIAM,16.0,mm,2464,TA88
S0034,,SUMDIAM,69.8,mm,2464,TA88
S0034,T01,LDIAM,17.5,mm,2492,TA89
S0034,T02,LDIAM,11.0,mm,2492,TA89
S0034,T03,LDIAM,25.3,mm,2492,TA89
S0034,T04,LDIAM,16.0,mm,2492,TA89
S0034,,SUMDIAM,69.8,mm,2492,TA89
S0034,T01,LDIAM,17.5,mm,2520,TA90
S0034,T02,LDIAM,11.0,mm,2520,TA90
S0034,T03,LDIAM,25.3,mm,2520,TA90
S0034,T04,LDIAM,16.0,mm,2520,TA90
S0034,,SUMDIAM,69.8,mm,2520,TA90
S0034,T01,LDIAM,17.5,mm,2548,TA91
S0034,T02,LDIAM,11.0,mm,2548,TA91
S0034,T03,LDIAM,25.3,mm,2548,TA91
S0034,T04,LDIAM,16.0,mm,2548,TA91
S0034,,SUMDIAM,69.8,mm,2548,TA91
S0034,T01,LDIAM,17.5,mm,2576,TA92
S0034,T02,LDIAM,11.0,mm,2576,TA92
S0034,T03,LDIAM,25.3,mm,2576,TA92
S0034,T04,LDIAM,16.0,mm,2576,TA92
S0034,,SUMDIAM,69.8,mm,2576,TA92
S0034,T01,LDIAM,17.5,mm,2604,TA93
S0034,T02,LDIAM,11.0,mm,2604,TA93
S0034,T03,LDIAM,25.3,mm,2604,TA93
S0034,T04,LDIAM,16.0,mm,2604,TA93
S0034,,SUMDIAM,69.8,mm,2604,TA93
S0034,T01,LDIAM,17.5,mm,2632,TA94
S0034,T02,LDIAM,11.0,mm,2632,TA94
S0034,T03,LDIAM,25.3,mm,2632,TA94
S0034,T04,LDIAM,16.0,mm,2632,TA94
S0034,,SUMDIAM,69.8,mm,2632,TA94
S0034,T01,LDIAM,17.5,mm,2660,TA95
S0034,T02,LDIAM,11.0,mm,2660,TA95
S0034,T03,LDIAM,25.3,mm,2660,TA95
S0034,T04,LDIAM,16.0,mm,2660,TA95
S0034,,SUMDIAM,69.8,mm,2660,TA95
S0034,T01,LDIAM,17.5,mm,2688,TA96
S0034,T02,LDIAM,11.0,mm,2688,TA96
S0034,T03,LDIAM,25.3,mm,2688,TA96
S0034,T04,LDIAM,16.0,mm,2688,TA96
S0034,,SUMDIAM,69.8,mm,2688,TA96
S0034,T01,LDIAM,17.5,mm,2716,TA97
S0034,T02,LDIAM,11.0,mm,2716,TA97
S0034,T03,LDIAM,25.3,mm,2716,TA97
S0034,T04,LDIAM,16.0,mm,2716,TA97
S0034,,SUMDIAM,69.8,mm,2716,TA97
S0034,T01,LDIAM,17.5,mm,2744,TA98
S0034,T02,LDIAM,11.0,mm,2744,TA98
S0034,T03,LDIAM,25.3,mm,2744,TA98
S0034,T04,LDIAM,16.0,mm,2744,TA98
S0034,,SUMDIAM,69.8,mm,2744,TA98
S0034,T01,LDIAM,17.5,mm,2772,TA99
S0034,T02,LDIAM,11.0,mm,2772,TA99
S0034,T03,LDIAM,25.3,mm,2772,TA99
S0034,T04,LDIAM,16.0,mm,2772,TA99
S0034,,SUMDIAM,69.8,mm,2772,TA99
S0034,T01,LDIAM,17.5,mm,2800,TA100
S0034,T02,LDIAM,11.0,mm,2800,TA100
S0034,T03,LDIAM,25.3,mm,2800,TA100
S0034,T04,LDIAM,16.0,mm,2800,TA100
S0034,,SUMDIAM,69.8,mm,2800,TA100
S0034,T01,LDIAM,17.5,mm,2828,TA101
S0034,T02,LDIAM,11.0,mm,2828,TA101
S0034,T03,LDIAM,25.3,mm,2828,TA101
S0034,T04,LDIAM,16.0,mm,2828,TA101
S0034,,SUMDIAM,69.8,mm,2828,TA101
S0034,T01,LDIAM,17.5,mm,2856,TA102
S0034,T02,LDIAM,11.0,mm,2856,TA102
S0034,T03,LDIAM,25.3,mm,2856,TA102
S0034,T04,LDIAM,16.0,mm,2856,TA102
S0034,,SUMDIAM,69.8,mm,2856,TA102
S0034,T01,LDIAM,17.5,mm,2884,TA103
S0034,T02,LDIAM,11.0,mm,2884,TA103
S0034,T03,LDIAM,25.3,mm,2884,TA103
S0034,T04,LDIAM,16.0,mm,2884,TA103
S0034,,SUMDIAM,69.8,mm,2884,TA103
S0034,T01,LDIAM,17.5,mm,2912,TA104
S0034,T02,LDIAM,11.0,mm,2912,TA104
S0034,T03,LDIAM,25.3,mm,2912,TA104
S0034,T04,LDIAM,16.0,mm,2912,TA104
S0034,,SUMDIAM,69.8,mm,2912,TA104
S0034,T01,LDIAM,17.5,mm,2940,TA105
S0034,T02,LDIAM,11.0,mm,2940,TA105
S0034,T03,LDIAM,25.3,mm,2940,TA105
S0034,T04,LDIAM,16.0,mm,2940,TA105
S0034,,SUMDIAM,69.8,mm,2940,TA105
S0034,T01,LDIAM,17.5,mm,2968,TA106
S0034,T02,LDIAM,11.0,mm,2968,TA106
S0034,T03,LDIAM,25.3,mm,2968,TA106
S0034,T04,LDIAM,16.0,mm,2968,TA106
S0034,,SUMDIAM,69.8,mm,2968,TA106
S0034,T01,LDIAM,17.5,mm,2996,TA107
S0034,T02,LDIAM,11.0,mm,2996,TA107
S0034,T03,LDIAM,25.3,mm,2996,TA107
S0034,T04,LDIAM,16.0,mm,2996,TA107
S0034,,SUMDIAM,69.8,mm,2996,TA107
S0034,T01,LDIAM,17.5,mm,3024,TA108
S0034,T02,LDIAM,11.0,mm,3024,TA108
S0034,T03,LDIAM,25.3,mm,3024,TA108
S0034,T04,LDIAM,16.0,mm,3024,TA108
S0034,,SUMDIAM,69.8,mm,3024,TA108
S0034,T01,LDIAM,17.5,mm,3052,TA109
S0034,T02,LDIAM,11.0,mm,3052,TA109
S0034,T03,LDIAM,25.3,mm,3052,TA109
S0034,T04,LDIAM,16.0,mm,3052,TA109
S0034,,SUMDIAM,69.8,mm,3052,TA109
S0034,T01,LDIAM,17.5,mm,3080,TA110
S0034,T02,LDIAM,11.0,mm,3080,TA110
S0034,T03,LDIAM,25.3,mm,3080,TA110
S0034,T04,LDIAM,16.0,mm,3080,TA110
S0034,,SUMDIAM,69.8,mm,3080,TA110
S0034,T01,LDIAM,17.5,mm,3108,TA111
S0034,T02,LDIAM,11.0,mm,3108,TA111
S0034,T03,LDIAM,25.3,mm,3108,TA111
S0034,T04,LDIAM,16.0,mm,3108,TA111
S0034,,SUMDIAM,69.8,mm,3108,TA111
S0034,T01,LDIAM,17.5,mm,3136,TA112
S0034,T02,LDIAM,11.0,mm,3136,TA112
S0034,T03,LDIAM,25.3,mm,3136,TA112
S0034,T04,LDIAM,16.0,mm,3136,TA112
S0034,,SUMDIAM,69.8,mm,3136,TA112
S0034,T01,LDIAM,17.5,mm,3164,TA113
S0034,T02,LDIAM,11.0,mm,3164,TA113
S0034,T03,LDIAM,25.3,mm,3164,TA113
S0034,T04,LDIAM,16.0,mm,3164,TA113
S0034,,SUMDIAM,69.8,mm,3164,TA113
S0034,T01,LDIAM,17.5,mm,3192,TA114
S0034,T02,LDIAM,11.0,mm,3192,TA114
S0034,T03,LDIAM,25.3,mm,3192,TA114
S0034,T04,LDIAM,16.0,mm,3192,TA114
S0034,,SUMDIAM,69.8,mm,3192,TA114
S0034,T01,LDIAM,17.5,mm,3220,TA115
S0034,T02,LDIAM,11.0,mm,3220,TA115
S0034,T03,LDIAM,25.3,mm,3220,TA115
S0034,T04,LDIAM,16.0,mm,3220,TA115
S0034,,SUMDIAM,69.8,mm,3220,TA115
S0034,T01,LDIAM,17.5,mm,3248,TA116
S0034,T02,LDIAM,11.0,mm,3248,TA116
S0034,T03,LDIAM,25.3,mm,3248,TA116
S0034,T04,LDIAM,16.0,mm,3248,TA116
S0034,,SUMDIAM,69.8,mm,3248,TA116
S0034,T01,LDIAM,17.5,mm,3276,TA117
S0034,T02,LDIAM,11.0,mm,3276,TA117
S0034,T03,LDIAM,25.3,mm,3276,TA117
S0034,T04,LDIAM,16.0,mm,3276,TA117
S0034,,SUMDIAM,69.8,mm,3276,TA117
S0034,T01,LDIAM,17.5,mm,3304,TA118
S0034,T02,LDIAM,11.0,mm,3304,TA118
S0034,T03,LDIAM,25.3,mm,3304,TA118
S0034,T04,LDIAM,16.0,mm,3304,TA118
S0034,,SUMDIAM,69.8,mm,3304,TA118
S0034,T01,LDIAM,17.5,mm,3332,TA119
S0034,T02,LDIAM,11.0,mm,3332,TA119
S0034,T03,LDIAM,25.3,mm,3332,TA119
S0034,T04,LDIAM,16.0,mm,3332,TA119
S0034,,SUMDIAM,69.8,mm,3332,TA119
S0034,T01,LDIAM,17.5,mm,3360,TA120
S0034,T02,LDIAM,11.0,mm,3360,TA120
S0034,T03,LDIAM,25.3,mm,3360,TA120
S0034,T04,LDIAM,16.0,mm,3360,TA120
S0034,,SUMDIAM,69.8,mm,3360,TA120
S0034,T01,LDIAM,17.5,mm,3388,TA121
S0034,T02,LDIAM,11.0,mm,3388,TA121
S0034,T03,LDIAM,25.3,mm,3388,TA121
S0034,T04,LDIAM,16.0,mm,3388,TA121
S0034,,SUMDIAM,69.8,mm,3388,TA121
S0034,T01,LDIAM,17.5,mm,3416,TA122
S0034,T02,LDIAM,11.0,mm,3416,TA122
S0034,T03,LDIAM,25.3,mm,3416,TA122
S0034,T04,LDIAM,16.0,mm,3416,TA122
S0034,,SUMDIAM,69.8,mm,3416,TA122
S0034,T01,LDIAM,17.5,mm,3444,TA123
S0034,T02,LDIAM,11.0,mm,3444,TA123
S0034,T03,LDIAM,25.3,mm,3444,TA123
S0034,T04,LDIAM,16.0,mm,3444,TA123
S0034,,SUMDIAM,69.8,mm,3444,TA123
S0034,T01,LDIAM,17.5,mm,3472,TA124
S0034,T02,LDIAM,11.0,mm,3472,TA124
S0034,T03,LDIAM,25.3,mm,3472,TA124
S0034,T04,LDIAM,16.0,mm,3472,TA124
S0034,,SUMDIAM,69.8,mm,3472,TA124
S0034,T01,LDIAM,17.5,mm,3500,TA125
S0034,T02,LDIAM,11.0,mm,3500,TA125
S0034,T03,LDIAM,25.3,mm,3500,TA125
S0034,T04,LDIAM,16.0,mm,3500,TA125
S0034,,SUMDIAM,69.8,mm,3500,TA125
S0034,T01,LDIAM,17.5,mm,3528,TA126
S0034,T02,LDIAM,11.0,mm,3528,TA126
S0034,T03,LDIAM,25.3,mm,3528,TA126
S0034,T04,LDIAM,16.0,mm,3528,TA126
S0034,,SUMDIAM,69.8,mm,3528,TA126
S0034,T01,LDIAM,17.5,mm,3556,TA127
S0034,T02,LDIAM,11.0,mm,3556,TA127
S0034,T03,LDIAM,25.3,mm,3556,TA127
S0034,T04,LDIAM,16.0,mm,3556,TA127
S0034,,SUMDIAM,69.8,mm,3556,TA127
S0034,T01,LDIAM,17.5,mm,3584,TA128
S0034,T02,LDIAM,11.0,mm,3584,TA128
S0034,T03,LDIAM,25.3,mm,3584,TA128
S0034,T04,LDIAM,16.0,mm,3584,TA128
S0034,,SUMDIAM,69.8,mm,3584,TA128
S0034,T01,LDIAM,17.5,mm,3612,TA129
S0034,T02,LDIAM,11.0,mm,3612,TA129
S0034,T03,LDIAM,25.3,mm,3612,TA129
S0034,T04,LDIAM,16.0,mm,3612,TA129
S0034,,SUMDIAM,69.8,mm,3612,TA129
S0034,T01,LDIAM,17.5,mm,3640,TA130
S0034,T02,LDIAM,11.0,mm,3640,TA130
S0034,T03,LDIAM,25.3,mm,3640,TA130
S0034,T04,LDIAM,16.0,mm,3640,TA130
S0034,,SUMDIAM,69.8,mm,3640,TA130
S0034,T01,LDIAM,17.5,mm,3668,TA131
S0034,T02,LDIAM,11.0,mm,3668,TA131
S0034,T03,LDIAM,25.3,mm,3668,TA131
S0034,T04,LDIAM,16.0,mm,3668,TA131
S0034,,SUMDIAM,69.8,mm,3668,TA131
S0034,T01,LDIAM,17.5,mm,3696,TA132
S0034,T02,LDIAM,11.0,mm,3696,TA132
S0034,T03,LDIAM,25.3,mm,3696,TA132
S0034,T04,LDIAM,16.0,mm,3696,TA132
S0034,,SUMDIAM,69.8,mm,3696,TA132
S0034,T01,LDIAM,17.5,mm,3724,TA133
S0034,T02,LDIAM,11.0,mm,3724,TA133
S0034,T03,LDIAM,25.3,mm,3724,TA133
S0034,T04,LDIAM,16.0,mm,3724,TA133
S0034,,SUMDIAM,69.8,mm,3724,TA133
S0034,T01,LDIAM,17.5,mm,3752,TA134
S0034,T02,LDIAM,11.0,mm,3752,TA134
S0034,T03,LDIAM,25.3,mm,3752,TA134
S0034,T04,LDIAM,16.0,mm,3752,TA134
S0034,,SUMDIAM,69.8,mm,3752,TA134
S0034,T01,LDIAM,17.5,mm,3780,TA135
S0034,T02,LDIAM,11.0,mm,3780,TA135
S0034,T03,LDIAM,25.3,mm,3780,TA135
S0034,T04,LDIAM,16.0,mm,3780,TA135
S0034,,SUMDIAM,69.8,mm,3780,TA135
S0034,T01,LDIAM,17.5,mm,3808,TA136
S0034,T02,LDIAM,11.0,mm,3808,TA136
S0034,T03,LDIAM,25.3,mm,3808,TA136
S0034,T04,LDIAM,16.0,mm,3808,TA136
S0034,,SUMDIAM,69.8,mm,3808,TA136
S0034,T01,LDIAM,17.5,mm,3836,TA137
S0034,T02,LDIAM,11.0,mm,3836,TA137
S0034,T03,LDIAM,25.3,mm,3836,TA137
S0034,T04,LDIAM,16.0,mm,3836,TA137
S0034,,SUMDIAM,69.8,mm,3836,TA137
S0034,T01,LDIAM,17.5,mm,3864,TA138
S0034,T02,LDIAM,11.0,mm,3864,TA138
S0034,T03,LDIAM,25.3,mm,3864,TA138
S0034,T04,LDIAM,16.0,mm,3864,TA138
S0034,,SUMDIAM,69.8,mm,3864,TA138
S0034,T01,LDIAM,17.5,mm,3892,TA139
S0034,T02,LDIAM,11.0,mm,3892,TA139
S0034,T03,LDIAM,25.3,mm,3892,TA139
S0034,T04,LDIAM,16.0,mm,3892,TA139
S0034,,SUMDIAM,69.8,mm,3892,TA139
S0034,T01,LDIAM,17.5,mm,3920,TA140
S0034,T02,LDIAM,11.0,mm,3920,TA140
S0034,T03,LDIAM,25.3,mm,3920,TA140
S0034,T04,LDIAM,16.0,mm,3920,TA140
S0034,,SUMDIAM,69.8,mm,3920,TA140
S0034,T01,LDIAM,17.5,mm,3948,TA141
S0034,T02,LDIAM,11.0,mm,3948,TA141
S0034,T03,LDIAM,25.3,mm,3948,TA141
S0034,T04,LDIAM,16.0,mm,3948,TA141
S0034,,SUMDIAM,69.8,mm,3948,TA141
S0034,T01,LDIAM,17.5,mm,3976,TA142
S0034,T02,LDIAM,11.0,mm,3976,TA142
S0034,T03,LDIAM,25.3,mm,3976,TA142
S0034,T04,LDIAM,16.0,mm,3976,TA142
S0034,,SUMDIAM,69.8,mm,3976,TA142
S0038,T01,LDIAM,13.4,mm,0,BASELINE
S0038,T02,LDIAM,10.0,mm,0,BASELINE
S0038,T03,LDIAM,52.7,mm,0,BASELINE
S0038,T04,LDIAM,19.2,mm,0,BASELINE
S0038,T05,LDIAM,40.9,mm,0,BASELINE
S0038,,SUMDIAM,136.2,mm,0,BASELINE
S0038,T01,LDIAM,6.7,mm,28,TA1
S0038,T02,LDIAM,5.0,mm,28,TA1
S0038,T03,LDIAM,26.4,mm,28,TA1
S0038,T04,LDIAM,9.6,mm,28,TA1
S0038,T05,LDIAM,20.4,mm,28,TA1
S0038,,SUMDIAM,68.1,mm,28,TA1
S0038,T01,LDIAM,0.0,mm,56,TA2
S0038,T02,LDIAM,0.0,mm,56,TA2
S0038,T03,LDIAM,0.0,mm,56,TA2
S0038,T04,LDIAM,0.0,mm,56,TA2
S0038,T05,LDIAM,0.0,mm,56,TA2
S0038,,SUMDIAM,0.0,mm,56,TA2
S0038,T01,LDIAM,0.0,mm,84,TA3
S0038,T02,LDIAM,0.0,mm,84,TA3
S0038,T03,LDIAM,0.0,mm,84,TA3
S0038,T04,LDIAM,0.0,mm,84,TA3
S0038,T05,LDIAM,0.0,mm,84,TA3
S0038,,SUMDIAM,0.0,mm,84,TA3
S0038,T01,LDIAM,0.0,mm,112,TA4
S0038,T02,LDIAM,0.0,mm,112,TA4
S0038,T03,LDIAM,0.0,mm,112,TA4
S0038,T04,LDIAM,0.0,mm,112,TA4
S0038,T05,LDIAM,0.0,mm,112,TA4
S0038,,SUMDIAM,0.0,mm,112,TA4
S0038,T01,LDIAM,0.0,mm,140,TA5
S0038,T02,LDIAM,0.0,mm,140,TA5
S0038,T03,LDIAM,0.0,mm,140,TA5
S0038,T04,LDIAM,0.0,mm,140,TA5
S0038,T05,LDIAM,0.0,mm,140,TA5
S0038,,SUMDIAM,0.0,mm,140,TA5
S0038,T01,LDIAM,0.0,mm,168,TA6
S0038,T02,LDIAM,0.0,mm,168,TA6
S0038,T03,LDIAM,0.0,mm,168,TA6
S0038,T04,LDIAM,0.0,mm,168,TA6
S0038,T05,LDIAM,0.0,mm,168,TA6
S0038,,SUMDIAM,0.0,mm,168,TA6
S0038,T01,LDIAM,0.0,mm,196,TA7
S0038,T02,LDIAM,0.0,mm,196,TA7
S0038,T03,LDIAM,0.0,mm,196,TA7
S0038,T04,LDIAM,0.0,mm,196,TA7
S0038,T05,LDIAM,0.0,mm,196,TA7
S0038,,SUMDIAM,0.0,mm,196,TA7
S0038,T01,LDIAM,0.0,mm,224,TA8
S0038,T02,LDIAM,0.0,mm,224,TA8
S0038,T03,LDIAM,0.0,mm,224,TA8
S0038,T04,LDIAM,0.0,mm,224,TA8
S0038,T05,LDIAM,0.0,mm,224,TA8
S0038,,SUMDIAM,0.0,mm,224,TA8
S0038,T01,LDIAM,0.0,mm,252,TA9
S0038,T02,LDIAM,0.0,mm,252,TA9
S0038,T03,LDIAM,0.0,mm,252,TA9
S0038,T04,LDIAM,0.0,mm,252,TA9
S0038,T05,LDIAM,0.0,mm,252,TA9
S0038,,SUMDIAM,0.0,mm,252,TA9
S0038,T01,LDIAM,0.0,mm,280,TA10
S0038,T02,LDIAM,0.0,mm,280,TA10
S0038,T03,LDIAM,0.0,mm,280,TA10
S0038,T04,LDIAM,0.0,mm,280,TA10
S0038,T05,LDIAM,0.0,mm,280,TA10
S0038,,SUMDIAM,0.0,mm,280,TA10
S0038,T01,LDIAM,0.0,mm,308,TA11
S0038,T02,LDIAM,0.0,mm,308,TA11
S0038,T03,LDIAM,0.0,mm,308,TA11
S0038,T04,LDIAM,0.0,mm,308,TA11
S0038,T05,LDIAM,0.0,mm,308,TA11
S0038,,SUMDIAM,0.0,mm,308,TA11
S0038,T01,LDIAM,0.0,mm,336,TA12
S0038,T02,LDIAM,0.0,mm,336,TA12
S0038,T03,LDIAM,0.0,mm,336,TA12
S0038,T04,LDIAM,0.0,mm,336,TA12
S0038,T05,LDIAM,0.0,mm,336,TA12
S0038,,SUMDIAM,0.0,mm,336,TA12
S0038,T01,LDIAM,0.0,mm,364,TA13
S0038,T02,LDIAM,0.0,mm,364,TA13
S0038,T03,LDIAM,0.0,mm,364,TA13
S0038,T04,LDIAM,0.0,mm,364,TA13
S0038,T05,LDIAM,0.0,mm,364,TA13
S0038,,SUMDIAM,0.0,mm,364,TA13
S0038,T01,LDIAM,0.0,mm,392,TA14
S0038,T02,LDIAM,0.0,mm,392,TA14
S0038,T03,LDIAM,0.0,mm,392,TA14
S0038,T04,LDIAM,0.0,mm,392,TA14
S0038,T05,LDIAM,0.0,mm,392,TA14
S0038,,SUMDIAM,0.0,mm,392,TA14
S0038,T01,LDIAM,0.0,mm,420,TA15
S0038,T02,LDIAM,0.0,mm,420,TA15
S0038,T03,LDIAM,0.0,mm,420,TA15
S0038,T04,LDIAM,0.0,mm,420,TA15
S0038,T05,LDIAM,0.0,mm,420,TA15
S0038,,SUMDIAM,0.0,mm,420,TA15
S0038,T01,LDIAM,0.0,mm,448,TA16
S0038,T02,LDIAM,0.0,mm,448,TA16
S0038,T03,LDIAM,0.0,mm,448,TA16
S0038,T04,LDIAM,0.0,mm,448,TA16
S0038,T05,LDIAM,0.0,mm,448,TA16
S0038,,SUMDIAM,0.0,mm,448,TA16
S0038,T01,LDIAM,0.0,mm,476,TA17
S0038,T02,LDIAM,0.0,mm,476,TA17
S0038,T03,LDIAM,0.0,mm,476,TA17
S0038,T04,LDIAM,0.0,mm,476,TA17
S0038,T05,LDIAM,0.0,mm,476,TA17
S0038,,SUMDIAM,0.0,mm,476,TA17
S0038,T01,LDIAM,0.0,mm,504,TA18
S0038,T02,LDIAM,0.0,mm,504,TA18
S0038,T03,LDIAM,0.0,mm,504,TA18
S0038,T04,LDIAM,0.0,mm,504,TA18
S0038,T05,LDIAM,0.0,mm,504,TA18
S0038,,SUMDIAM,0.0,mm,504,TA18
S0038,T01,LDIAM,0.0,mm,532,TA19
S0038,T02,LDIAM,0.0,mm,532,TA19
S0038,T03,LDIAM,0.0,mm,532,TA19
S0038,T04,LDIAM,0.0,mm,532,TA19
S0038,T05,LDIAM,0.0,mm,532,TA19
S0038,,SUMDIAM,0.0,mm,532,TA19
S0038,T01,LDIAM,0.0,mm,560,TA20
S0038,T02,LDIAM,0.0,mm,560,TA20
S0038,T03,LDIAM,0.0,mm,560,TA20
S0038,T04,LDIAM,0.0,mm,560,TA20
S0038,T05,LDIAM,0.0,mm,560,TA20
S0038,,SUMDIAM,0.0,mm,560,TA20
S0038,T01,LDIAM,0.0,mm,588,TA21
S0038,T02,LDIAM,0.0,mm,588,TA21
S0038,T03,LDIAM,0.0,mm,588,TA21
S0038,T04,LDIAM,0.0,mm,588,TA21
S0038,T05,LDIAM,0.0,mm,588,TA21
S0038,,SUMDIAM,0.0,mm,588,TA21
S0038,T01,LDIAM,0.0,mm,616,TA22
S0038,T02,LDIAM,0.0,mm,616,TA22
S0038,T03,LDIAM,0.0,mm,616,TA22
S0038,T04,LDIAM,0.0,mm,616,TA22
S0038,T05,LDIAM,0.0,mm,616,TA22
S0038,,SUMDIAM,0.0,mm,616,TA22
S0038,T01,LDIAM,0.0,mm,644,TA23
S0038,T02,LDIAM,0.0,mm,644,TA23
S0038,T03,LDIAM,0.0,mm,644,TA23
S0038,T04,LDIAM,0.0,mm,644,TA23
S0038,T05,LDIAM,0.0,mm,644,TA23
S0038,,SUMDIAM,0.0,mm,644,TA23
S0038,T01,LDIAM,0.0,mm,672,TA24
S0038,T02,LDIAM,0.0,mm,672,TA24
S0038,T03,LDIAM,0.0,mm,672,TA24
S0038,T04,LDIAM,0.0,mm,672,TA24
S0038,T05,LDIAM,0.0,mm,672,TA24
S0038,,SUMDIAM,0.0,mm,672,TA24
S0038,T01,LDIAM,0.0,mm,700,TA25
S0038,T02,LDIAM,0.0,mm,700,TA25
S0038,T03,LDIAM,0.0,mm,700,TA25
S0038,T04,LDIAM,0.0,mm,700,TA25
S0038,T05,LDIAM,0.0,mm,700,TA25
S0038,,SUMDIAM,0.0,mm,700,TA25
S0038,T01,LDIAM,0.0,mm,728,TA26
S0038,T02,LDIAM,0.0,mm,728,TA26
S0038,T03,LDIAM,0.0,mm,728,TA26
S0038,T04,LDIAM,0.0,mm,728,TA26
S0038,T05,LDIAM,0.0,mm,728,TA26
S0038,,SUMDIAM,0.0,mm,728,TA26
S0038,T01,LDIAM,0.0,mm,756,TA27
S0038,T02,LDIAM,0.0,mm,756,TA27
S0038,T03,LDIAM,0.0,mm,756,TA27
S0038,T04,LDIAM,0.0,mm,756,TA27
S0038,T05,LDIAM,0.0,mm,756,TA27
S0038,,SUMDIAM,0.0,mm,756,TA27
S0038,T01,LDIAM,0.0,mm,784,TA28
S0038,T02,LDIAM,0.0,mm,784,TA28
S0038,T03,LDIAM,0.0,mm,784,TA28
S0038,T04,LDIAM,0.0,mm,784,TA28
S0038,T05,LDIAM,0.0,mm,784,TA28
S0038,,SUMDIAM,0.0,mm,784,TA28
S0038,T01,LDIAM,0.0,mm,812,TA29
S0038,T02,LDIAM,0.0,mm,812,TA29
S0038,T03,LDIAM,0.0,mm,812,TA29
S0038,T04,LDIAM,0.0,mm,812,TA29
S0038,T05,LDIAM,0.0,mm,812,TA29
S0038,,SUMDIAM,0.0,mm,812,TA29
S0038,T01,LDIAM,0.0,mm,840,TA30
S0038,T02,LDIAM,0.0,mm,840,TA30
S0038,T03,LDIAM,0.0,mm,840,TA30
S0038,T04,LDIAM,0.0,mm,840,TA30
S0038,T05,LDIAM,0.0,mm,840,TA30
S0038,,SUMDIAM,0.0,mm,840,TA30
S0038,T01,LDIAM,0.0,mm,868,TA31
S0038,T02,LDIAM,0.0,mm,868,TA31
S0038,T03,LDIAM,0.0,mm,868,TA31
S0038,T04,LDIAM,0.0,mm,868,TA31
S0038,T05,LDIAM,0.0,mm,868,TA31
S0038,,SUMDIAM,0.0,mm,868,TA31
S0038,T01,LDIAM,0.0,mm,896,TA32
S0038,T02,LDIAM,0.0,mm,896,TA32
S0038,T03,LDIAM,0.0,mm,896,TA32
S0038,T04,LDIAM,0.0,mm,896,TA32
S0038,T05,LDIAM,0.0,mm,896,TA32
S0038,,SUMDIAM,0.0,mm,896,TA32
S0038,T01,LDIAM,0.0,mm,924,TA33
S0038,T02,LDIAM,0.0,mm,924,TA33
S0038,T03,LDIAM,0.0,mm,924,TA33
S0038,T04,LDIAM,0.0,mm,924,TA33
S0038,T05,LDIAM,0.0,mm,924,TA33
S0038,,SUMDIAM,0.0,mm,924,TA33
S0038,T01,LDIAM,0.0,mm,952,TA34
S0038,T02,LDIAM,0.0,mm,952,TA34
S0038,T03,LDIAM,0.0,mm,952,TA34
S0038,T04,LDIAM,0.0,mm,952,TA34
S0038,T05,LDIAM,0.0,mm,952,TA34
S0038,,SUMDIAM,0.0,mm,952,TA34
S0038,T01,LDIAM,0.0,mm,980,TA35
S0038,T02,LDIAM,0.0,mm,980,TA35
S0038,T03,LDIAM,0.0,mm,980,TA35
S0038,T04,LDIAM,0.0,mm,980,TA35
S0038,T05,LDIAM,0.0,mm,980,TA35
S0038,,SUMDIAM,0.0,mm,980,TA35
S0038,T01,LDIAM,0.0,mm,1008,TA36
S0038,T02,LDIAM,0.0,mm,1008,TA36
S0038,T03,LDIAM,0.0,mm,1008,TA36
S0038,T04,LDIAM,0.0,mm,1008,TA36
S0038,T05,LDIAM,0.0,mm,1008,TA36
S0038,,SUMDIAM,0.0,mm,1008,TA36
S0038,T01,LDIAM,0.0,mm,1036,TA37
S0038,T02,LDIAM,0.0,mm,1036,TA37
S0038,T03,LDIAM,0.0,mm,1036,TA37
S0038,T04,LDIAM,0.0,mm,1036,TA37
S0038,T05,LDIAM,0.0,mm,1036,TA37
S0038,,SUMDIAM,0.0,mm,1036,TA37
S0038,T01,LDIAM,0.0,mm,1064,TA38
S0038,T02,LDIAM,0.0,mm,1064,TA38
S0038,T03,LDIAM,0.0,mm,1064,TA38
S0038,T04,LDIAM,0.0,mm,1064,TA38
S0038,T05,LDIAM,0.0,mm,1064,TA38
S0038,,SUMDIAM,0.0,mm,1064,TA38
S0038,T01,LDIAM,0.0,mm,1092,TA39
S0038,T02,LDIAM,0.0,mm,1092,TA39
S0038,T03,LDIAM,0.0,mm,1092,TA39
S0038,T04,LDIAM,0.0,mm,1092,TA39
S0038,T05,LDIAM,0.0,mm,1092,TA39
S0038,,SUMDIAM,0.0,mm,1092,TA39
S0038,T01,LDIAM,0.0,mm,1120,TA40
S0038,T02,LDIAM,0.0,mm,1120,TA40
S0038,T03,LDIAM,0.0,mm,1120,TA40
S0038,T04,LDIAM,0.0,mm,1120,TA40
S0038,T05,LDIAM,0.0,mm,1120,TA40
S0038,,SUMDIAM,0.0,mm,1120,TA40
S0038,T01,LDIAM,0.0,mm,1148,TA41
S0038,T02,LDIAM,0.0,mm,1148,TA41
S0038,T03,LDIAM,0.0,mm,1148,TA41
S0038,T04,LDIAM,0.0,mm,1148,TA41
S0038,T05,LDIAM,0.0,mm,1148,TA41
S0038,,SUMDIAM,0.0,mm,1148,TA41
S0038,T01,LDIAM,0.0,mm,1176,TA42
S0038,T02,LDIAM,0.0,mm,1176,TA42
S0038,T03,LDIAM,0.0,mm,1176,TA42
S0038,T04,LDIAM,0.0,mm,1176,TA42
S0038,T05,LDIAM,0.0,mm,1176,TA42
S0038,,SUMDIAM,0.0,mm,1176,TA42
S0038,T01,LDIAM,0.0,mm,1204,TA43
S0038,T02,LDIAM,0.0,mm,1204,TA43
S0038,T03,LDIAM,0.0,mm,1204,TA43
S0038,T04,LDIAM,0.0,mm,1204,TA43
S0038,T05,LDIAM,0.0,mm,1204,TA43
S0038,,SUMDIAM,0.0,mm,1204,TA43
S0038,T01,LDIAM,0.0,mm,1232,TA44
S0038,T02,LDIAM,0.0,mm,1232,TA44
S0038,T03,LDIAM,0.0,mm,1232,TA44
S0038,T04,LDIAM,0.0,mm,1232,TA44
S0038,T05,LDIAM,0.0,mm,1232,TA44
S0038,,SUMDIAM,0.0,mm,1232,TA44
S0038,T01,LDIAM,0.0,mm,1260,TA45
S0038,T02,LDIAM,0.0,mm,1260,TA45
S0038,T03,LDIAM,0.0,mm,1260,TA45
S0038,T04,LDIAM,0.0,mm,1260,TA45
S0038,T05,LDIAM,0.0,mm,1260,TA45
S0038,,SUMDIAM,0.0,mm,1260,TA45
S0038,T01,LDIAM,0.0,mm,1288,TA46
S0038,T02,LDIAM,0.0,mm,1288,TA46
S0038,T03,LDIAM,0.0,mm,1288,TA46
S0038,T04,LDIAM,0.0,mm,1288,TA46
S0038,T05,LDIAM,0.0,mm,1288,TA46
S0038,,SUMDIAM,0.0,mm,1288,TA46
S0038,T01,LDIAM,0.0,mm,1316,TA47
S0038,T02,LDIAM,0.0,mm,1316,TA47
S0038,T03,LDIAM,0.0,mm,1316,TA47
S0038,T04,LDIAM,0.0,mm,1316,TA47
S0038,T05,LDIAM,0.0,mm,1316,TA47
S0038,,SUMDIAM,0.0,mm,1316,TA47
S0038,T01,LDIAM,0.0,mm,1344,TA48
S0038,T02,LDIAM,0.0,mm,1344,TA48
S0038,T03,LDIAM,0.0,mm,1344,TA48
S0038,T04,LDIAM,0.0,mm,1344,TA48
S0038,T05,LDIAM,0.0,mm,1344,TA48
S0038,,SUMDIAM,0.0,mm,1344,TA48
S0038,T01,LDIAM,0.0,mm,1372,TA49
S0038,T02,LDIAM,0.0,mm,1372,TA49
S0038,T03,LDIAM,0.0,mm,1372,TA49
S0038,T04,LDIAM,0.0,mm,1372,TA49
S0038,T05,LDIAM,0.0,mm,1372,TA49
S0038,,SUMDIAM,0.0,mm,1372,TA49
S0038,T01,LDIAM,0.0,mm,1400,TA50
S0038,T02,LDIAM,0.0,mm,1400,TA50
S0038,T03,LDIAM,0.0,mm,1400,TA50
S0038,T04,LDIAM,0.0,mm,1400,TA50
S0038,T05,LDIAM,0.0,mm,1400,TA50
S0038,,SUMDIAM,0.0,mm,1400,TA50
S0038,T01,LDIAM,0.0,mm,1428,TA51
S0038,T02,LDIAM,0.0,mm,1428,TA51
S0038,T03,LDIAM,0.0,mm,1428,TA51
S0038,T04,LDIAM,0.0,mm,1428,TA51
S0038,T05,LDIAM,0.0,mm,1428,TA51
S0038,,SUMDIAM,0.0,mm,1428,TA51
S0038,T01,LDIAM,0.0,mm,1456,TA52
S0038,T02,LDIAM,0.0,mm,1456,TA52
S0038,T03,LDIAM,0.0,mm,1456,TA52
S0038,T04,LDIAM,0.0,mm,1456,TA52
S0038,T05,LDIAM,0.0,mm,1456,TA52
S0038,,SUMDIAM,0.0,mm,1456,TA52
S0038,T01,LDIAM,0.0,mm,1484,TA53
S0038,T02,LDIAM,0.0,mm,1484,TA53
S0038,T03,LDIAM,0.0,mm,1484,TA53
S0038,T04,LDIAM,0.0,mm,1484,TA53
S0038,T05,LDIAM,0.0,mm,1484,TA53
S0038,,SUMDIAM,0.0,mm,1484,TA53
S0038,T01,LDIAM,0.0,mm,1512,TA54
S0038,T02,LDIAM,0.0,mm,1512,TA54
S0038,T03,LDIAM,0.0,mm,1512,TA54
S0038,T04,LDIAM,0.0,mm,1512,TA54
S0038,T05,LDIAM,0.0,mm,1512,TA54
S0038,,SUMDIAM,0.0,mm,1512,TA54
S0038,T01,LDIAM,0.0,mm,1540,TA55
S0038,T02,LDIAM,0.0,mm,1540,TA55
S0038,T03,LDIAM,0.0,mm,1540,TA55
S0038,T04,LDIAM,0.0,mm,1540,TA55
S0038,T05,LDIAM,0.0,mm,1540,TA55
S0038,,SUMDIAM,0.0,mm,1540,TA55
S0038,T01,LDIAM,0.0,mm,1568,TA56
S0038,T02,LDIAM,0.0,mm,1568,TA56
S0038,T03,LDIAM,0.0,mm,1568,TA56
S0038,T04,LDIAM,0.0,mm,1568,TA56
S0038,T05,LDIAM,0.0,mm,1568,TA56
S0038,,SUMDIAM,0.0,mm,1568,TA56
S0038,T01,LDIAM,0.0,mm,1596,TA57
S0038,T02,LDIAM,0.0,mm,1596,TA57
S0038,T03,LDIAM,0.0,mm,1596,TA57
S0038,T04,LDIAM,0.0,mm,1596,TA57
S0038,T05,LDIAM,0.0,mm,1596,TA57
S0038,,SUMDIAM,0.0,mm,1596,TA57
S0038,T01,LDIAM,0.0,mm,1624,TA58
S0038,T02,LDIAM,0.0,mm,1624,TA58
S0038,T03,LDIAM,0.0,mm,1624,TA58
S0038,T04,LDIAM,0.0,mm,1624,TA58
S0038,T05,LDIAM,0.0,mm,1624,TA58
S0038,,SUMDIAM,0.0,mm,1624,TA58
S0038,T01,LDIAM,0.0,mm,1652,TA59
S0038,T02,LDIAM,0.0,mm,1652,TA59
S0038,T03,LDIAM,0.0,mm,1652,TA59
S0038,T04,LDIAM,0.0,mm,1652,TA59
S0038,T05,LDIAM,0.0,mm,1652,TA59
S0038,,SUMDIAM,0.0,mm,1652,TA59
S0038,T01,LDIAM,0.0,mm,1680,TA60
S0038,T02,LDIAM,0.0,mm,1680,TA60
S0038,T03,LDIAM,0.0,mm,1680,TA60
S0038,T04,LDIAM,0.0,mm,1680,TA60
S0038,T05,LDIAM,0.0,mm,1680,TA60
S0038,,SUMDIAM,0.0,mm,1680,TA60
S0038,T01,LDIAM,0.0,mm,1708,TA61
S0038,T02,LDIAM,0.0,mm,1708,TA61
S0038,T03,LDIAM,0.0,mm,1708,TA61
S0038,T04,LDIAM,0.0,mm,1708,TA61
S0038,T05,LDIAM,0.0,mm,1708,TA61
S0038,,SUMDIAM,0.0,mm,1708,TA61
S0038,T01,LDIAM,0.0,mm,1736,TA62
S0038,T02,LDIAM,0.0,mm,1736,TA62
S0038,T03,LDIAM,0.0,mm,1736,TA62
S0038,T04,LDIAM,0.0,mm,1736,TA62
S0038,T05,LDIAM,0.0,mm,1736,TA62
S0038,,SUMDIAM,0.0,mm,1736,TA62
S0038,T01,LDIAM,0.0,mm,1764,TA63
S0038,T02,LDIAM,0.0,mm,1764,TA63
S0038,T03,LDIAM,0.0,mm,1764,TA63
S0038,T04,LDIAM,0.0,mm,1764,TA63
S0038,T05,LDIAM,0.0,mm,1764,TA63
S0038,,SUMDIAM,0.0,mm,1764,TA63
S0038,T01,LDIAM,0.0,mm,1792,TA64
S0038,T02,LDIAM,0.0,mm,1792,TA64
S0038,T03,LDIAM,0.0,mm,1792,TA64
S0038,T04,LDIAM,0.0,mm,1792,TA64
S0038,T05,LDIAM,0.0,mm,1792,TA64
S0038,,SUMDIAM,0.0,mm,1792,TA64
S0038,T01,LDIAM,0.0,mm,1820,TA65
S0038,T02,LDIAM,0.0,mm,1820,TA65
S0038,T03,LDIAM,0.0,mm,1820,TA65
S0038,T04,LDIAM,0.0,mm,1820,TA65
S0038,T05,LDIAM,0.0,mm,1820,TA65
S0038,,SUMDIAM,0.0,mm,1820,TA65
S0038,T01,LDIAM,0.7,mm,1848,TA66
S0038,T02,LDIAM,0.5,mm,1848,TA66
S0038,T03,LDIAM,2.6,mm,1848,TA66
S0038,T04,LDIAM,1.0,mm,1848,TA66
S0038,T05,LDIAM,2.0,mm,1848,TA66
S0038,,SUMDIAM,6.8,mm,1848,TA66
S0038,T01,LDIAM,0.7,mm,1876,TA67
S0038,T02,LDIAM,0.5,mm,1876,TA67
S0038,T03,LDIAM,2.6,mm,1876,TA67
S0038,T04,LDIAM,1.0,mm,1876,TA67
S0038,T05,LDIAM,2.0,mm,1876,TA67
S0038,,SUMDIAM,6.8,mm,1876,TA67
S0038,T01,LDIAM,0.7,mm,1904,TA68
S0038,T02,LDIAM,0.5,mm,1904,TA68
S0038,T03,LDIAM,2.6,mm,1904,TA68
S0038,T04,LDIAM,1.0,mm,1904,TA68
S0038,T05,LDIAM,2.0,mm,1904,TA68
S0038,,SUMDIAM,6.8,mm,1904,TA68
S0038,T01,LDIAM,0.7,mm,1932,TA69
S0038,T02,LDIAM,0.5,mm,1932,TA69
S0038,T03,LDIAM,2.6,mm,1932,TA69
S0038,T04,LDIAM,1.0,mm,1932,TA69
S0038,T05,LDIAM,2.0,mm,1932,TA69
S0038,,SUMDIAM,6.8,mm,1932,TA69
S0038,T01,LDIAM,0.7,mm,1960,TA70
S0038,T02,LDIAM,0.5,mm,1960,TA70
S0038,T03,LDIAM,2.6,mm,1960,TA70
S0038,T04,LDIAM,1.0,mm,1960,TA70
S0038,T05,LDIAM,2.0,mm,1960,TA70
S0038,,SUMDIAM,6.8,mm,1960,TA70
S0038,T01,LDIAM,0.7,mm,1988,TA71
S0038,T02,LDIAM,0.5,mm,1988,TA71
S0038,T03,LDIAM,2.6,mm,1988,TA71
S0038,T04,LDIAM,1.0,mm,1988,TA71
S0038,T05,LDIAM,2.0,mm,1988,TA71
S0038,,SUMDIAM,6.8,mm,1988,TA71
S0038,T01,LDIAM,0.7,mm,2016,TA72
S0038,T02,LDIAM,0.5,mm,2016,TA72
S0038,T03,LDIAM,2.6,mm,2016,TA72
S0038,T04,LDIAM,1.0,mm,2016,TA72
S0038,T05,LDIAM,2.0,mm,2016,TA72
S0038,,SUMDIAM,6.8,mm,2016,TA72
S0038,T01,LDIAM,0.7,mm,2044,TA73
S0038,T02,LDIAM,0.5,mm,2044,TA73
S0038,T03,LDIAM,2.6,mm,2044,TA73
S0038,T04,LDIAM,1.0,mm,2044,TA73
S0038,T05,LDIAM,2.0,mm,2044,TA73
S0038,,SUMDIAM,6.8,mm,2044,TA73
S0038,T01,LDIAM,0.7,mm,2072,TA74
S0038,T02,LDIAM,0.5,mm,2072,TA74
S0038,T03,LDIAM,2.6,mm,2072,TA74
S0038,T04,LDIAM,1.0,mm,2072,TA74
S0038,T05,LDIAM,2.0,mm,2072,TA74
S0038,,SUMDIAM,6.8,mm,2072,TA74
S0038,T01,LDIAM,0.7,mm,2100,TA75
S0038,T02,LDIAM,0.5,mm,2100,TA75
S0038,T03,LDIAM,2.6,mm,2100,TA75
S0038,T04,LDIAM,1.0,mm,2100,TA75
S0038,T05,LDIAM,2.0,mm,2100,TA75
S0038,,SUMDIAM,6.8,mm,2100,TA75
S0038,T01,LDIAM,0.7,mm,2128,TA76
S0038,T02,LDIAM,0.5,mm,2128,TA76
S0038,T03,LDIAM,2.6,mm,2128,TA76
S0038,T04,LDIAM,1.0,mm,2128,TA76
S0038,T05,LDIAM,2.0,mm,2128,TA76
S0038,,SUMDIAM,6.8,mm,2128,TA76
S0038,T01,LDIAM,0.7,mm,2156,TA77
S0038,T02,LDIAM,0.5,mm,2156,TA77
S0038,T03,LDIAM,2.6,mm,2156,TA77
S0038,T04,LDIAM,1.0,mm,2156,TA77
S0038,T05,LDIAM,2.0,mm,2156,TA77
S0038,,SUMDIAM,6.8,mm,2156,TA77
S0038,T01,LDIAM,0.7,mm,2184,TA78
S0038,T02,LDIAM,0.5,mm,2184,TA78
S0038,T03,LDIAM,2.6,mm,2184,TA78
S0038,T04,LDIAM,1.0,mm,2184,TA78
S0038,T05,LDIAM,2.0,mm,2184,TA78
S0038,,SUMDIAM,6.8,mm,2184,TA78
S0038,T01,LDIAM,0.7,mm,2212,TA79
S0038,T02,LDIAM,0.5,mm,2212,TA79
S0038,T03,LDIAM,2.6,mm,2212,TA79
S0038,T04,LDIAM,1.0,mm,2212,TA79
S0038,T05,LDIAM,2.0,mm,2212,TA79
S0038,,SUMDIAM,6.8,mm,2212,TA79
S0038,T01,LDIAM,0.7,mm,2240,TA80
S0038,T02,LDIAM,0.5,mm,2240,TA80
S0038,T03,LDIAM,2.6,mm,2240,TA80
S0038,T04,LDIAM,1.0,mm,2240,TA80
S0038,T05,LDIAM,2.0,mm,2240,TA80
S0038,,SUMDIAM,6.8,mm,2240,TA80
S0038,T01,LDIAM,0.7,mm,2268,TA81
S0038,T02,LDIAM,0.5,mm,2268,TA81
S0038,T03,LDIAM,2.6,mm,2268,TA81
S0038,T04,LDIAM,1.0,mm,2268,TA81
S0038,T05,LDIAM,2.0,mm,2268,TA81
S0038,,SUMDIAM,6.8,mm,2268,TA81
S0038,T01,LDIAM,0.7,mm,2296,TA82
S0038,T02,LDIAM,0.5,mm,2296,TA82
S0038,T03,LDIAM,2.6,mm,2296,TA82
S0038,T04,LDIAM,1.0,mm,2296,TA82
S0038,T05,LDIAM,2.0,mm,2296,TA82
S0038,,SUMDIAM,6.8,mm,2296,TA82
S0038,T01,LDIAM,0.7,mm,2324,TA83
S0038,T02,LDIAM,0.5,mm,2324,TA83
S0038,T03,LDIAM,2.6,mm,2324,TA83
S0038,T04,LDIAM,1.0,mm,2324,TA83
S0038,T05,LDIAM,2.0,mm,2324,TA83
S0038,,SUMDIAM,6.8,mm,2324,TA83
S0038,T01,LDIAM,0.7,mm,2352,TA84
S0038,T02,LDIAM,0.5,mm,2352,TA84
S0038,T03,LDIAM,2.6,mm,2352,TA84
S0038,T04,LDIAM,1.0,mm,2352,TA84
S0038,T05,LDIAM,2.0,mm,2352,TA84
S0038,,SUMDIAM,6.8,mm,2352,TA84
S0038,T01,LDIAM,0.7,mm,2380,TA85
S0038,T02,LDIAM,0.5,mm,2380,TA85
S0038,T03,LDIAM,2.6,mm,2380,TA85
S0038,T04,LDIAM,1.0,mm,2380,TA85
S0038,T05,LDIAM,2.0,mm,2380,TA85
S0038,,SUMDIAM,6.8,mm,2380,TA85
S0038,T01,LDIAM,0.7,mm,2408,TA86
S0038,T02,LDIAM,0.5,mm,2408,TA86
S0038,T03,LDIAM,2.6,mm,2408,TA86
S0038,T04,LDIAM,1.0,mm,2408,TA86
S0038,T05,LDIAM,2.0,mm,2408,TA86
S0038,,SUMDIAM,6.8,mm,2408,TA86
S0039,T01,LDIAM,16.7,mm,0,BASELINE
S0039,T02,LDIAM,46.4,mm,0,BASELINE
S0039,,SUMDIAM,63.1,mm,0,BASELINE
S0039,T01,LDIAM,8.3,mm,28,TA1
S0039,T02,LDIAM,23.2,mm,28,TA1
S0039,,SUMDIAM,31.5,mm,28,TA1
S0039,T01,LDIAM,0.0,mm,56,TA2
S0039,T02,LDIAM,0.0,mm,56,TA2
S0039,,SUMDIAM,0.0,mm,56,TA2
S0039,T01,LDIAM,0.0,mm,84,TA3
S0039,T02,LDIAM,0.0,mm,84,TA3
S0039,,SUMDIAM,0.0,mm,84,TA3
S0039,T01,LDIAM,0.0,mm,112,TA4
S0039,T02,LDIAM,0.0,mm,112,TA4
S0039,,SUMDIAM,0.0,mm,112,TA4
S0039,T01,LDIAM,0.0,mm,140,TA5
S0039,T02,LDIAM,0.0,mm,140,TA5
S0039,,SUMDIAM,0.0,mm,140,TA5
S0039,T01,LDIAM,0.0,mm,168,TA6
S0039,T02,LDIAM,0.0,mm,168,TA6
S0039,,SUMDIAM,0.0,mm,168,TA6
S0039,T01,LDIAM,0.0,mm,196,TA7
S0039,T02,LDIAM,0.0,mm,196,TA7
S0039,,SUMDIAM,0.0,mm,196,TA7
S0039,T01,LDIAM,0.0,mm,224,TA8
S0039,T02,LDIAM,0.0,mm,224,TA8
S0039,,SUMDIAM,0.0,mm,224,TA8
S0039,T01,LDIAM,0.0,mm,252,TA9
S0039,T02,LDIAM,0.0,mm,252,TA9
S0039,,SUMDIAM,0.0,mm,252,TA9
S0039,T01,LDIAM,0.0,mm,280,TA10
S0039,T02,LDIAM,0.0,mm,280,TA10
S0039,,SUMDIAM,0.0,mm,280,TA10
S0039,T01,LDIAM,0.0,mm,308,TA11
S0039,T02,LDIAM,0.0,mm,308,TA11
S0039,,SUMDIAM,0.0,mm,308,TA11
S0039,T01,LDIAM,0.0,mm,336,TA12
S0039,T02,LDIAM,0.0,mm,336,TA12
S0039,,SUMDIAM,0.0,mm,336,TA12
S0039,T01,LDIAM,0.0,mm,364,TA13
S0039,T02,LDIAM,0.0,mm,364,TA13
S0039,,SUMDIAM,0.0,mm,364,TA13
S0039,T01,LDIAM,0.0,mm,392,TA14
S0039,T02,LDIAM,0.0,mm,392,TA14
S0039,,SUMDIAM,0.0,mm,392,TA14
S0039,T01,LDIAM,0.0,mm,420,TA15
S0039,T02,LDIAM,0.0,mm,420,TA15
S0039,,SUMDIAM,0.0,mm,420,TA15
S0039,T01,LDIAM,0.0,mm,448,TA16
S0039,T02,LDIAM,0.0,mm,448,TA16
S0039,,SUMDIAM,0.0,mm,448,TA16
S0039,T01,LDIAM,0.0,mm,476,TA17
S0039,T02,LDIAM,0.0,mm,476,TA17
S0039,,SUMDIAM,0.0,mm,476,TA17
S0039,T01,LDIAM,0.0,mm,504,TA18
S0039,T02,LDIAM,0.0,mm,504,TA18
S0039,,SUMDIAM,0.0,mm,504,TA18
S0039,T01,LDIAM,0.0,mm,532,TA19
S0039,T02,LDIAM,0.0,mm,532,TA19
S0039,,SUMDIAM,0.0,mm,532,TA19
S0039,T01,LDIAM,0.0,mm,560,TA20
S0039,T02,LDIAM,0.0,mm,560,TA20
S0039,,SUMDIAM,0.0,mm,560,TA20
S0039,T01,LDIAM,0.0,mm,588,TA21
S0039,T02,LDIAM,0.0,mm,588,TA21
S0039,,SUMDIAM,0.0,mm,588,TA21
S0039,T01,LDIAM,0.0,mm,616,TA22
S0039,T02,LDIAM,0.0,mm,616,TA22
S0039,,SUMDIAM,0.0,mm,616,TA22
S0039,T01,LDIAM,0.0,mm,644,TA23
S0039,T02,LDIAM,0.0,mm,644,TA23
S0039,,SUMDIAM,0.0,mm,644,TA23
S0039,T01,LDIAM,0.0,mm,672,TA24
S0039,T02,LDIAM,0.0,mm,672,TA24
S0039,,SUMDIAM,0.0,mm,672,TA24
S0039,T01,LDIAM,0.0,mm,700,TA25
S0039,T02,LDIAM,0.0,mm,700,TA25
S0039,,SUMDIAM,0.0,mm,700,TA25
S0039,T01,LDIAM,0.0,mm,728,TA26
S0039,T02,LDIAM,0.0,mm,728,TA26
S0039,,SUMDIAM,0.0,mm,728,TA26
S0039,T01,LDIAM,0.0,mm,756,TA27
S0039,T02,LDIAM,0.0,mm,756,TA27
S0039,,SUMDIAM,0.0,mm,756,TA27
S0039,T01,LDIAM,0.0,mm,784,TA28
S0039,T02,LDIAM,0.0,mm,784,TA28
S0039,,SUMDIAM,0.0,mm,784,TA28
S0039,T01,LDIAM,0.0,mm,812,TA29
S0039,T02,LDIAM,0.0,mm,812,TA29
S0039,,SUMDIAM,0.0,mm,812,TA29
S0039,T01,LDIAM,0.0,mm,840,TA30
S0039,T02,LDIAM,0.0,mm,840,TA30
S0039,,SUMDIAM,0.0,mm,840,TA30
S0039,T01,LDIAM,0.0,mm,868,TA31
S0039,T02,LDIAM,0.0,mm,868,TA31
S0039,,SUMDIAM,0.0,mm,868,TA31
S0039,T01,LDIAM,0.0,mm,896,TA32
S0039,T02,LDIAM,0.0,mm,896,TA32
S0039,,SUMDIAM,0.0,mm,896,TA32
S0039,T01,LDIAM,0.0,mm,924,TA33
S0039,T02,LDIAM,0.0,mm,924,TA33
S0039,,SUMDIAM,0.0,mm,924,TA33
S0039,T01,LDIAM,0.0,mm,952,TA34
S0039,T02,LDIAM,0.0,mm,952,TA34
S0039,,SUMDIAM,0.0,mm,952,TA34
S0039,T01,LDIAM,0.0,mm,980,TA35
S0039,T02,LDIAM,0.0,mm,980,TA35
S0039,,SUMDIAM,0.0,mm,980,TA35
S0039,T01,LDIAM,0.0,mm,1008,TA36
S0039,T02,LDIAM,0.0,mm,1008,TA36
S0039,,SUMDIAM,0.0,mm,1008,TA36
S0039,T01,LDIAM,0.0,mm,1036,TA37
S0039,T02,LDIAM,0.0,mm,1036,TA37
S0039,,SUMDIAM,0.0,mm,1036,TA37
S0039,T01,LDIAM,0.0,mm,1064,TA38
S0039,T02,LDIAM,0.0,mm,1064,TA38
S0039,,SUMDIAM,0.0,mm,1064,TA38
S0039,T01,LDIAM,0.0,mm,1092,TA39
S0039,T02,LDIAM,0.0,mm,1092,TA39
S0039,,SUMDIAM,0.0,mm,1092,TA39
S0039,T01,LDIAM,0.0,mm,1120,TA40
S0039,T02,LDIAM,0.0,mm,1120,TA40
S0039,,SUMDIAM,0.0,mm,1120,TA40
S0039,T01,LDIAM,0.0,mm,1148,TA41
S0039,T02,LDIAM,0.0,mm,1148,TA41
S0039,,SUMDIAM,0.0,mm,1148,TA41
S0039,T01,LDIAM,0.0,mm,1176,TA42
S0039,T02,LDIAM,0.0,mm,1176,TA42
S0039,,SUMDIAM,0.0,mm,1176,TA42
S0039,T01,LDIAM,0.0,mm,1204,TA43
S0039,T02,LDIAM,0.0,mm,1204,TA43
S0039,,SUMDIAM,0.0,mm,1204,TA43
S0039,T01,LDIAM,0.0,mm,1232,TA44
S0039,T02,LDIAM,0.0,mm,1232,TA44
S0039,,SUMDIAM,0.0,mm,1232,TA44
S0039,T01,LDIAM,0.0,mm,1260,TA45
S0039,T02,LDIAM,0.0,mm,1260,TA45
S0039,,SUMDIAM,0.0,mm,1260,TA45
S0039,T01,LDIAM,0.0,mm,1288,TA46
S0039,T02,LDIAM,0.0,mm,1288,TA46
S0039,,SUMDIAM,0.0,mm,1288,TA46
S0039,T01,LDIAM,0.0,mm,1316,TA47
S0039,T02,LDIAM,0.0,mm,1316,TA47
S0039,,SUMDIAM,0.0,mm,1316,TA47
S0039,T01,LDIAM,0.0,mm,1344,TA48
S0039,T02,LDIAM,0.0,mm,1344,TA48
S0039,,SUMDIAM,0.0,mm,1344,TA48
S0039,T01,LDIAM,0.0,mm,1372,TA49
S0039,T02,LDIAM,0.0,mm,1372,TA49
S0039,,SUMDIAM,0.0,mm,1372,TA49
S0039,T01,LDIAM,0.0,mm,1400,TA50
S0039,T02,LDIAM,0.0,mm,1400,TA50
S0039,,SUMDIAM,0.0,mm,1400,TA50
S0039,T01,LDIAM,0.0,mm,1428,TA51
S0039,T02,LDIAM,0.0,mm,1428,TA51
S0039,,SUMDIAM,0.0,mm,1428,TA51
S0039,T01,LDIAM,0.0,mm,1456,TA52
S0039,T02,LDIAM,0.0,mm,1456,TA52
S0039,,SUMDIAM,0.0,mm,1456,TA52
S0039,T01,LDIAM,0.0,mm,1484,TA53
S0039,T02,LDIAM,0.0,mm,1484,TA53
S0039,,SUMDIAM,0.0,mm,1484,TA53
S0039,T01,LDIAM,0.0,mm,1512,TA54
S0039,T02,LDIAM,0.0,mm,1512,TA54
S0039,,SUMDIAM,0.0,mm,1512,TA54
S0039,T01,LDIAM,0.0,mm,1540,TA55
S0039,T02,LDIAM,0.0,mm,1540,TA55
S0039,,SUMDIAM,0.0,mm,1540,TA55
S0039,T01,LDIAM,0.0,mm,1568,TA56
S0039,T02,LDIAM,0.0,mm,1568,TA56
S0039,,SUMDIAM,0.0,mm,1568,TA56
S0039,T01,LDIAM,0.0,mm,1596,TA57
S0039,T02,LDIAM,0.0,mm,1596,TA57
S0039,,SUMDIAM,0.0,mm,1596,TA57
S0039,T01,LDIAM,0.0,mm,1624,TA58
S0039,T02,LDIAM,0.0,mm,1624,TA58
S0039,,SUMDIAM,0.0,mm,1624,TA58
S0039,T01,LDIAM,0.0,mm,1652,TA59
S0039,T02,LDIAM,0.0,mm,1652,TA59
S0039,,SUMDIAM,0.0,mm,1652,TA59
S0039,T01,LDIAM,0.0,mm,1680,TA60
S0039,T02,LDIAM,0.0,mm,1680,TA60
S0039,,SUMDIAM,0.0,mm,1680,TA60
S0039,T01,LDIAM,0.0,mm,1708,TA61
S0039,T02,LDIAM,0.0,mm,1708,TA61
S0039,,SUMDIAM,0.0,mm,1708,TA61
S0039,T01,LDIAM,0.0,mm,1736,TA62
S0039,T02,LDIAM,0.0,mm,1736,TA62
S0039,,SUMDIAM,0.0,mm,1736,TA62
S0039,T01,LDIAM,0.0,mm,1764,TA63
S0039,T02,LDIAM,0.0,mm,1764,TA63
S0039,,SUMDIAM,0.0,mm,1764,TA63
S0039,T01,LDIAM,0.0,mm,1792,TA64
S0039,T02,LDIAM,0.0,mm,1792,TA64
S0039,,SUMDIAM,0.0,mm,1792,TA64
S0039,T01,LDIAM,0.0,mm,1820,TA65
S0039,T02,LDIAM,0.0,mm,1820,TA65
S0039,,SUMDIAM,0.0,mm,1820,TA65
S0039,T01,LDIAM,0.0,mm,1848,TA66
S0039,T02,LDIAM,0.0,mm,1848,TA66
S0039,,SUMDIAM,0.0,mm,1848,TA66
S0039,T01,LDIAM,0.0,mm,1876,TA67
S0039,T02,LDIAM,0.0,mm,1876,TA67
S0039,,SUMDIAM,0.0,mm,1876,TA67
S0039,T01,LDIAM,0.0,mm,1904,TA68
S0039,T02,LDIAM,0.0,mm,1904,TA68
S0039,,SUMDIAM,0.0,mm,1904,TA68
S0039,T01,LDIAM,0.0,mm,1932,TA69
S0039,T02,LDIAM,0.0,mm,1932,TA69
S0039,,SUMDIAM,0.0,mm,1932,TA69
S0039,T01,LDIAM,0.0,mm,1960,TA70
S0039,T02,LDIAM,0.0,mm,1960,TA70
S0039,,SUMDIAM,0.0,mm,1960,TA70
S0039,T01,LDIAM,0.0,mm,1988,TA71
S0039,T02,LDIAM,0.0,mm,1988,TA71
S0039,,SUMDIAM,0.0,mm,1988,TA71
S0039,T01,LDIAM,0.0,mm,2016,TA72
S0039,T02,LDIAM,0.0,mm,2016,TA72
S0039,,SUMDIAM,0.0,mm,2016,TA72
S0039,T01,LDIAM,0.0,mm,2044,TA73
S0039,T02,LDIAM,0.0,mm,2044,TA73
S0039,,SUMDIAM,0.0,mm,2044,TA73
S0039,T01,LDIAM,0.0,mm,2072,TA74
S0039,T02,LDIAM,0.0,mm,2072,TA74
S0039,,SUMDIAM,0.0,mm,2072,TA74
S0039,T01,LDIAM,0.0,mm,2100,TA75
S0039,T02,LDIAM,0.0,mm,2100,TA75
S0039,,SUMDIAM,0.0,mm,2100,TA75
S0039,T01,LDIAM,0.0,mm,2128,TA76
S0039,T02,LDIAM,0.0,mm,2128,TA76
S0039,,SUMDIAM,0.0,mm,2128,TA76
S0039,T01,LDIAM,0.0,mm,2156,TA77
S0039,T02,LDIAM,0.0,mm,2156,TA77
S0039,,SUMDIAM,0.0,mm,2156,TA77
S0039,T01,LDIAM,0.0,mm,2184,TA78
S0039,T02,LDIAM,0.0,mm,2184,TA78
S0039,,SUMDIAM,0.0,mm,2184,TA78
S0039,T01,LDIAM,0.0,mm,2212,TA79
S0039,T02,LDIAM,0.0,mm,2212,TA79
S0039,,SUMDIAM,0.0,mm,2212,TA79
S0039,T01,LDIAM,0.0,mm,2240,TA80
S0039,T02,LDIAM,0.0,mm,2240,TA80
S0039,,SUMDIAM,0.0,mm,2240,TA80
S0039,T01,LDIAM,0.0,mm,2268,TA81
S0039,T02,LDIAM,0.0,mm,2268,TA81
S0039,,SUMDIAM,0.0,mm,2268,TA81
S0039,T01,LDIAM,0.0,mm,2296,TA82
S0039,T02,LDIAM,0.0,mm,2296,TA82
S0039,,SUMDIAM,0.0,mm,2296,TA82
S0039,T01,LDIAM,0.0,mm,2324,TA83
S0039,T02,LDIAM,0.0,mm,2324,TA83
S0039,,SUMDIAM,0.0,mm,2324,TA83
S0039,T01,LDIAM,0.0,mm,2352,TA84
S0039,T02,LDIAM,0.0,mm,2352,TA84
S0039,,SUMDIAM,0.0,mm,2352,TA84
S0039,T01,LDIAM,0.0,mm,2380,TA85
S0039,T02,LDIAM,0.0,mm,2380,TA85
S0039,,SUMDIAM,0.0,mm,2380,TA85
S0039,T01,LDIAM,0.0,mm,2408,TA86
S0039,T02,LDIAM,0.0,mm,2408,TA86
S0039,,SUMDIAM,0.0,mm,2408,TA86
S0039,T01,LDIAM,0.8,mm,2436,TA87
S0039,T02,LDIAM,2.3,mm,2436,TA87
S0039,,SUMDIAM,3.2,mm,2436,TA87
S0039,T01,LDIAM,0.8,mm,2464,TA88
S0039,T02,LDIAM,2.3,mm,2464,TA88
S0039,,SUMDIAM,3.2,mm,2464,TA88
S0039,T01,LDIAM,0.8,mm,2492,TA89
S0039,T02,LDIAM,2.3,mm,2492,TA89
S0039,,SUMDIAM,3.2,mm,2492,TA89
S0039,T01,LDIAM,0.8,mm,2520,TA90
S0039,T02,LDIAM,2.3,mm,2520,TA90
S0039,,SUMDIAM,3.2,mm,2520,TA90
S0039,T01,LDIAM,0.8,mm,2548,TA91
S0039,T02,LDIAM,2.3,mm,2548,TA91
S0039,,SUMDIAM,3.2,mm,2548,TA91
S0041,T01,LDIAM,18.5,mm,0,BASELINE
S0041,,SUMDIAM,18.5,mm,0,BASELINE
S0041,T01,LDIAM,9.9,mm,28,TA1
S0041,,SUMDIAM,9.9,mm,28,TA1
S0041,T01,LDIAM,1.3,mm,56,TA2
S0041,,SUMDIAM,1.3,mm,56,TA2
S0041,T01,LDIAM,1.3,mm,84,TA3
S0041,,SUMDIAM,1.3,mm,84,TA3
S0041,T01,LDIAM,1.3,mm,112,TA4
S0041,,SUMDIAM,1.3,mm,112,TA4
S0041,T01,LDIAM,1.3,mm,140,TA5
S0041,,SUMDIAM,1.3,mm,140,TA5
S0041,T01,LDIAM,1.3,mm,168,TA6
S0041,,SUMDIAM,1.3,mm,168,TA6
S0041,T01,LDIAM,1.3,mm,196,TA7
S0041,,SUMDIAM,1.3,mm,196,TA7
S0041,T01,LDIAM,1.3,mm,224,TA8
S0041,,SUMDIAM,1.3,mm,224,TA8
S0041,T01,LDIAM,1.3,mm,252,TA9
S0041,,SUMDIAM,1.3,mm,252,TA9
S0041,T01,LDIAM,1.3,mm,280,TA10
S0041,,SUMDIAM,1.3,mm,280,TA10
S0041,T01,LDIAM,1.3,mm,308,TA11
S0041,,SUMDIAM,1.3,mm,308,TA11
S0041,T01,LDIAM,1.3,mm,336,TA12
S0041,,SUMDIAM,1.3,mm,336,TA12
S0041,T01,LDIAM,1.3,mm,364,TA13
S0041,,SUMDIAM,1.3,mm,364,TA13
S0041,T01,LDIAM,1.3,mm,392,TA14
S0041,,SUMDIAM,1.3,mm,392,TA14
S0041,T01,LDIAM,1.3,mm,420,TA15
S0041,,SUMDIAM,1.3,mm,420,TA15
S0041,T01,LDIAM,1.3,mm,448,TA16
S0041,,SUMDIAM,1.3,mm,448,TA16
S0041,T01,LDIAM,1.3,mm,476,TA17
S0041,,SUMDIAM,1.3,mm,476,TA17
S0041,T01,LDIAM,1.3,mm,504,TA18
S0041,,SUMDIAM,1.3,mm,504,TA18
S0041,T01,LDIAM,1.3,mm,532,TA19
S0041,,SUMDIAM,1.3,mm,532,TA19
S0041,T01,LDIAM,1.3,mm,560,TA20
S0041,,SUMDIAM,1.3,mm,560,TA20
S0041,T01,LDIAM,1.3,mm,588,TA21
S0041,,SUMDIAM,1.3,mm,588,TA21
S0044,T01,LDIAM,23.8,mm,0,BASELINE
S0044,T02,LDIAM,50.0,mm,0,BASELINE
S0044,T03,LDIAM,26.5,mm,0,BASELINE
S0044,T04,LDIAM,15.0,mm,0,BASELINE
S0044,T05,LDIAM,52.1,mm,0,BASELINE
S0044,,SUMDIAM,167.4,mm,0,BASELINE
S0044,T01,LDIAM,11.9,mm,28,TA1
S0044,T02,LDIAM,25.0,mm,28,TA1
S0044,T03,LDIAM,13.2,mm,28,TA1
S0044,T04,LDIAM,7.5,mm,28,TA1
S0044,T05,LDIAM,26.1,mm,28,TA1
S0044,,SUMDIAM,83.7,mm,28,TA1
S0044,T01,LDIAM,0.0,mm,56,TA2
S0044,T02,LDIAM,0.0,mm,56,TA2
S0044,T03,LDIAM,0.0,mm,56,TA2
S0044,T04,LDIAM,0.0,mm,56,TA2
S0044,T05,LDIAM,0.0,mm,56,TA2
S0044,,SUMDIAM,0.0,mm,56,TA2
S0044,T01,LDIAM,0.0,mm,84,TA3
S0044,T02,LDIAM,0.0,mm,84,TA3
S0044,T03,LDIAM,0.0,mm,84,TA3
S0044,T04,LDIAM,0.0,mm,84,TA3
S0044,T05,LDIAM,0.0,mm,84,TA3
S0044,,SUMDIAM,0.0,mm,84,TA3
S0044,T01,LDIAM,0.0,mm,112,TA4
S0044,T02,LDIAM,0.0,mm,112,TA4
S0044,T03,LDIAM,0.0,mm,112,TA4
S0044,T04,LDIAM,0.0,mm,112,TA4
S0044,T05,LDIAM,0.0,mm,112,TA4
S0044,,SUMDIAM,0.0,mm,112,TA4
S0044,T01,LDIAM,0.0,mm,140,TA5
S0044,T02,LDIAM,0.0,mm,140,TA5
S0044,T03,LDIAM,0.0,mm,140,TA5
S0044,T04,LDIAM,0.0,mm,140,TA5
S0044,T05,LDIAM,0.0,mm,140,TA5
S0044,,SUMDIAM,0.0,mm,140,TA5
S0044,T01,LDIAM,0.0,mm,168,TA6
S0044,T02,LDIAM,0.0,mm,168,TA6
S0044,T03,LDIAM,0.0,mm,168,TA6
S0044,T04,LDIAM,0.0,mm,168,TA6
S0044,T05,LDIAM,0.0,mm,168,TA6
S0044,,SUMDIAM,0.0,mm,168,TA6
S0044,T01,LDIAM,0.0,mm,196,TA7
S0044,T02,LDIAM,0.0,mm,196,TA7
S0044,T03,LDIAM,0.0,mm,196,TA7
S0044,T04,LDIAM,0.0,mm,196,TA7
S0044,T05,LDIAM,0.0,mm,196,TA7
S0044,,SUMDIAM,0.0,mm,196,TA7
S0044,T01,LDIAM,0.0,mm,224,TA8
S0044,T02,LDIAM,0.0,mm,224,TA8
S0044,T03,LDIAM,0.0,mm,224,TA8
S0044,T04,LDIAM,0.0,mm,224,TA8
S0044,T05,LDIAM,0.0,mm,224,TA8
S0044,,SUMDIAM,0.0,mm,224,TA8
S0044,T01,LDIAM,0.0,mm,252,TA9
S0044,T02,LDIAM,0.0,mm,252,TA9
S0044,T03,LDIAM,0.0,mm,252,TA9
S0044,T04,LDIAM,0.0,mm,252,TA9
S0044,T05,LDIAM,0.0,mm,252,TA9
S0044,,SUMDIAM,0.0,mm,252,TA9
S0044,T01,LDIAM,0.0,mm,280,TA10
S0044,T02,LDIAM,0.0,mm,280,TA10
S0044,T03,LDIAM,0.0,mm,280,TA10
S0044,T04,LDIAM,0.0,mm,280,TA10
S0044,T05,LDIAM,0.0,mm,280,TA10
S0044,,SUMDIAM,0.0,mm,280,TA10
S0044,T01,LDIAM,0.0,mm,308,TA11
S0044,T02,LDIAM,0.0,mm,308,TA11
S0044,T03,LDIAM,0.0,mm,308,TA11
S0044,T04,LDIAM,0.0,mm,308,TA11
S0044,T05,LDIAM,0.0,mm,308,TA11
S0044,,SUMDIAM,0.0,mm,308,TA11
S0044,T01,LDIAM,0.0,mm,336,TA12
S0044,T02,LDIAM,0.0,mm,336,TA12
S0044,T03,LDIAM,0.0,mm,336,TA12
S0044,T04,LDIAM,0.0,mm,336,TA12
S0044,T05,LDIAM,0.0,mm,336,TA12
S0044,,SUMDIAM,0.0,mm,336,TA12
S0044,T01,LDIAM,0.0,mm,364,TA13
S0044,T02,LDIAM,0.0,mm,364,TA13
S0044,T03,LDIAM,0.0,mm,364,TA13
S0044,T04,LDIAM,0.0,mm,364,TA13
S0044,T05,LDIAM,0.0,mm,364,TA13
S0044,,SUMDIAM,0.0,mm,364,TA13
S0044,T01,LDIAM,0.0,mm,392,TA14
S0044,T02,LDIAM,0.0,mm,392,TA14
S0044,T03,LDIAM,0.0,mm,392,TA14
S0044,T04,LDIAM,0.0,mm,392,TA14
S0044,T05,LDIAM,0.0,mm,392,TA14
S0044,,SUMDIAM,0.0,mm,392,TA14
S0044,T01,LDIAM,0.0,mm,420,TA15
S0044,T02,LDIAM,0.0,mm,420,TA15
S0044,T03,LDIAM,0.0,mm,420,TA15
S0044,T04,LDIAM,0.0,mm,420,TA15
S0044,T05,LDIAM,0.0,mm,420,TA15
S0044,,SUMDIAM,0.0,mm,420,TA15
S0044,T01,LDIAM,0.0,mm,448,TA16
S0044,T02,LDIAM,0.0,mm,448,TA16
S0044,T03,LDIAM,0.0,mm,448,TA16
S0044,T04,LDIAM,0.0,mm,448,TA16
S0044,T05,LDIAM,0.0,mm,448,TA16
S0044,,SUMDIAM,0.0,mm,448,TA16
S0044,T01,LDIAM,0.0,mm,476,TA17
S0044,T02,LDIAM,0.0,mm,476,TA17
S0044,T03,LDIAM,0.0,mm,476,TA17
S0044,T04,LDIAM,0.0,mm,476,TA17
S0044,T05,LDIAM,0.0,mm,476,TA17
S0044,,SUMDIAM,0.0,mm,476,TA17
S0044,T01,LDIAM,0.0,mm,504,TA18
S0044,T02,LDIAM,0.0,mm,504,TA18
S0044,T03,LDIAM,0.0,mm,504,TA18
S0044,T04,LDIAM,0.0,mm,504,TA18
S0044,T05,LDIAM,0.0,mm,504,TA18
S0044,,SUMDIAM,0.0,mm,504,TA18
S0044,T01,LDIAM,0.0,mm,532,TA19
S0044,T02,LDIAM,0.0,mm,532,TA19
S0044,T03,LDIAM,0.0,mm,532,TA19
S0044,T04,LDIAM,0.0,mm,532,TA19
S0044,T05,LDIAM,0.0,mm,532,TA19
S0044,,SUMDIAM,0.0,mm,532,TA19
S0044,T01,LDIAM,0.0,mm,560,TA20
S0044,T02,LDIAM,0.0,mm,560,TA20
S0044,T03,LDIAM,0.0,mm,560,TA20
S0044,T04,LDIAM,0.0,mm,560,TA20
S0044,T05,LDIAM,0.0,mm,560,TA20
S0044,,SUMDIAM,0.0,mm,560,TA20
S0044,T01,LDIAM,0.0,mm,588,TA21
S0044,T02,LDIAM,0.0,mm,588,TA21
S0044,T03,LDIAM,0.0,mm,588,TA21
S0044,T04,LDIAM,0.0,mm,588,TA21
S0044,T05,LDIAM,0.0,mm,588,TA21
S0044,,SUMDIAM,0.0,mm,588,TA21
S0044,T01,LDIAM,0.0,mm,616,TA22
S0044,T02,LDIAM,0.0,mm,616,TA22
S0044,T03,LDIAM,0.0,mm,616,TA22
S0044,T04,LDIAM,0.0,mm,616,TA22
S0044,T05,LDIAM,0.0,mm,616,TA22
S0044,,SUMDIAM,0.0,mm,616,TA22
S0044,T01,LDIAM,0.0,mm,644,TA23
S0044,T02,LDIAM,0.0,mm,644,TA23
S0044,T03,LDIAM,0.0,mm,644,TA23
S0044,T04,LDIAM,0.0,mm,644,TA23
S0044,T05,LDIAM,0.0,mm,644,TA23
S0044,,SUMDIAM,0.0,mm,644,TA23
S0044,T01,LDIAM,0.0,mm,672,TA24
S0044,T02,LDIAM,0.0,mm,672,TA24
S0044,T03,LDIAM,0.0,mm,672,TA24
S0044,T04,LDIAM,0.0,mm,672,TA24
S0044,T05,LDIAM,0.0,mm,672,TA24
S0044,,SUMDIAM,0.0,mm,672,TA24
S0044,T01,LDIAM,0.0,mm,700,TA25
S0044,T02,LDIAM,0.0,mm,700,TA25
S0044,T03,LDIAM,0.0,mm,700,TA25
S0044,T04,LDIAM,0.0,mm,700,TA25
S0044,T05,LDIAM,0.0,mm,700,TA25
S0044,,SUMDIAM,0.0,mm,700,TA25
S0044,T01,LDIAM,0.0,mm,728,TA26
S0044,T02,LDIAM,0.0,mm,728,TA26
S0044,T03,LDIAM,0.0,mm,728,TA26
S0044,T04,LDIAM,0.0,mm,728,TA26
S0044,T05,LDIAM,0.0,mm,728,TA26
S0044,,SUMDIAM,0.0,mm,728,TA26
S0044,T01,LDIAM,0.0,mm,756,TA27
S0044,T02,LDIAM,0.0,mm,756,TA27
S0044,T03,LDIAM,0.0,mm,756,TA27
S0044,T04,LDIAM,0.0,mm,756,TA27
S0044,T05,LDIAM,0.0,mm,756,TA27
S0044,,SUMDIAM,0.0,mm,756,TA27
S0044,T01,LDIAM,0.0,mm,784,TA28
S0044,T02,LDIAM,0.0,mm,784,TA28
S0044,T03,LDIAM,0.0,mm,784,TA28
S0044,T04,LDIAM,0.0,mm,784,TA28
S0044,T05,LDIAM,0.0,mm,784,TA28
S0044,,SUMDIAM,0.0,mm,784,TA28
S0044,T01,LDIAM,0.0,mm,812,TA29
S0044,T02,LDIAM,0.0,mm,812,TA29
S0044,T03,LDIAM,0.0,mm,812,TA29
S0044,T04,LDIAM,0.0,mm,812,TA29
S0044,T05,LDIAM,0.0,mm,812,TA29
S0044,,SUMDIAM,0.0,mm,812,TA29
S0044,T01,LDIAM,0.0,mm,840,TA30
S0044,T02,LDIAM,0.0,mm,840,TA30
S0044,T03,LDIAM,0.0,mm,840,TA30
S0044,T04,LDIAM,0.0,mm,840,TA30
S0044,T05,LDIAM,0.0,mm,840,TA30
S0044,,SUMDIAM,0.0,mm,840,TA30
S0044,T01,LDIAM,0.0,mm,868,TA31
S0044,T02,LDIAM,0.0,mm,868,TA31
S0044,T03,LDIAM,0.0,mm,868,TA31
S0044,T04,LDIAM,0.0,mm,868,TA31
S0044,T05,LDIAM,0.0,mm,868,TA31
S0044,,SUMDIAM,0.0,mm,868,TA31
S0044,T01,LDIAM,0.0,mm,896,TA32
S0044,T02,LDIAM,0.0,mm,896,TA32
S0044,T03,LDIAM,0.0,mm,896,TA32
S0044,T04,LDIAM,0.0,mm,896,TA32
S0044,T05,LDIAM,0.0,mm,896,TA32
S0044,,SUMDIAM,0.0,mm,896,TA32
S0044,T01,LDIAM,0.0,mm,924,TA33
S0044,T02,LDIAM,0.0,mm,924,TA33
S0044,T03,LDIAM,0.0,mm,924,TA33
S0044,T04,LDIAM,0.0,mm,924,TA33
S0044,T05,LDIAM,0.0,mm,924,TA33
S0044,,SUMDIAM,0.0,mm,924,TA33
S0044,T01,LDIAM,0.0,mm,952,TA34
S0044,T02,LDIAM,0.0,mm,952,TA34
S0044,T03,LDIAM,0.0,mm,952,TA34
S0044,T04,LDIAM,0.0,mm,952,TA34
S0044,T05,LDIAM,0.0,mm,952,TA34
S0044,,SUMDIAM,0.0,mm,952,TA34
S0044,T01,LDIAM,0.0,mm,980,TA35
S0044,T02,LDIAM,0.0,mm,980,TA35
S0044,T03,LDIAM,0.0,mm,980,TA35
S0044,T04,LDIAM,0.0,mm,980,TA35
S0044,T05,LDIAM,0.0,mm,980,TA35
S0044,,SUMDIAM,0.0,mm,980,TA35
S0044,T01,LDIAM,0.0,mm,1008,TA36
S0044,T02,LDIAM,0.0,mm,1008,TA36
S0044,T03,LDIAM,0.0,mm,1008,TA36
S0044,T04,LDIAM,0.0,mm,1008,TA36
S0044,T05,LDIAM,0.0,mm,1008,TA36
S0044,,SUMDIAM,0.0,mm,1008,TA36
S0044,T01,LDIAM,0.0,mm,1036,TA37
S0044,T02,LDIAM,0.0,mm,1036,TA37
S0044,T03,LDIAM,0.0,mm,1036,TA37
S0044,T04,LDIAM,0.0,mm,1036,TA37
S0044,T05,LDIAM,0.0,mm,1036,TA37
S0044,,SUMDIAM,0.0,mm,1036,TA37
S0044,T01,LDIAM,0.0,mm,1064,TA38
S0044,T02,LDIAM,0.0,mm,1064,TA38
S0044,T03,LDIAM,0.0,mm,1064,TA38
S0044,T04,LDIAM,0.0,mm,1064,TA38
S0044,T05,LDIAM,0.0,mm,1064,TA38
S0044,,SUMDIAM,0.0,mm,1064,TA38
S0044,T01,LDIAM,0.0,mm,1092,TA39
S0044,T02,LDIAM,0.0,mm,1092,TA39
S0044,T03,LDIAM,0.0,mm,1092,TA39
S0044,T04,LDIAM,0.0,mm,1092,TA39
S0044,T05,LDIAM,0.0,mm,1092,TA39
S0044,,SUMDIAM,0.0,mm,1092,TA39
S0044,T01,LDIAM,0.0,mm,1120,TA40
S0044,T02,LDIAM,0.0,mm,1120,TA40
S0044,T03,LDIAM,0.0,mm,1120,TA40
S0044,T04,LDIAM,0.0,mm,1120,TA40
S0044,T05,LDIAM,0.0,mm,1120,TA40
S0044,,SUMDIAM,0.0,mm,1120,TA40
S0044,T01,LDIAM,0.0,mm,1148,TA41
S0044,T02,LDIAM,0.0,mm,1148,TA41
S0044,T03,LDIAM,0.0,mm,1148,TA41
S0044,T04,LDIAM,0.0,mm,1148,TA41
S0044,T05,LDIAM,0.0,mm,1148,TA41
S0044,,SUMDIAM,0.0,mm,1148,TA41
S0044,T01,LDIAM,0.0,mm,1176,TA42
S0044,T02,LDIAM,0.0,mm,1176,TA42
S0044,T03,LDIAM,0.0,mm,1176,TA42
S0044,T04,LDIAM,0.0,mm,1176,TA42
S0044,T05,LDIAM,0.0,mm,1176,TA42
S0044,,SUMDIAM,0.0,mm,1176,TA42
S0044,T01,LDIAM,0.0,mm,1204,TA43
S0044,T02,LDIAM,0.0,mm,1204,TA43
S0044,T03,LDIAM,0.0,mm,1204,TA43
S0044,T04,LDIAM,0.0,mm,1204,TA43
S0044,T05,LDIAM,0.0,mm,1204,TA43
S0044,,SUMDIAM,0.0,mm,1204,TA43
S0044,T01,LDIAM,0.0,mm,1232,TA44
S0044,T02,LDIAM,0.0,mm,1232,TA44
S0044,T03,LDIAM,0.0,mm,1232,TA44
S0044,T04,LDIAM,0.0,mm,1232,TA44
S0044,T05,LDIAM,0.0,mm,1232,TA44
S0044,,SUMDIAM,0.0,mm,1232,TA44
S0044,T01,LDIAM,0.0,mm,1260,TA45
S0044,T02,LDIAM,0.0,mm,1260,TA45
S0044,T03,LDIAM,0.0,mm,1260,TA45
S0044,T04,LDIAM,0.0,mm,1260,TA45
S0044,T05,LDIAM,0.0,mm,1260,TA45
S0044,,SUMDIAM,0.0,mm,1260,TA45
S0044,T01,LDIAM,0.0,mm,1288,TA46
S0044,T02,LDIAM,0.0,mm,1288,TA46
S0044,T03,LDIAM,0.0,mm,1288,TA46
S0044,T04,LDIAM,0.0,mm,1288,TA46
S0044,T05,LDIAM,0.0,mm,1288,TA46
S0044,,SUMDIAM,0.0,mm,1288,TA46
S0044,T01,LDIAM,0.0,mm,1316,TA47
S0044,T02,LDIAM,0.0,mm,1316,TA47
S0044,T03,LDIAM,0.0,mm,1316,TA47
S0044,T04,LDIAM,0.0,mm,1316,TA47
S0044,T05,LDIAM,0.0,mm,1316,TA47
S0044,,SUMDIAM,0.0,mm,1316,TA47
S0044,T01,LDIAM,0.0,mm,1344,TA48
S0044,T02,LDIAM,0.0,mm,1344,TA48
S0044,T03,LDIAM,0.0,mm,1344,TA48
S0044,T04,LDIAM,0.0,mm,1344,TA48
S0044,T05,LDIAM,0.0,mm,1344,TA48
S0044,,SUMDIAM,0.0,mm,1344,TA48
S0044,T01,LDIAM,0.0,mm,1372,TA49
S0044,T02,LDIAM,0.0,mm,1372,TA49
S0044,T03,LDIAM,0.0,mm,1372,TA49
S0044,T04,LDIAM,0.0,mm,1372,TA49
S0044,T05,LDIAM,0.0,mm,1372,TA49
S0044,,SUMDIAM,0.0,mm,1372,TA49
S0044,T01,LDIAM,0.0,mm,1400,TA50
S0044,T02,LDIAM,0.0,mm,1400,TA50
S0044,T03,LDIAM,0.0,mm,1400,TA50
S0044,T04,LDIAM,0.0,mm,1400,TA50
S0044,T05,LDIAM,0.0,mm,1400,TA50
S0044,,SUMDIAM,0.0,mm,1400,TA50
S0044,T01,LDIAM,0.0,mm,1428,TA51
S0044,T02,LDIAM,0.0,mm,1428,TA51
S0044,T03,LDIAM,0.0,mm,1428,TA51
S0044,T04,LDIAM,0.0,mm,1428,TA51
S0044,T05,LDIAM,0.0,mm,1428,TA51
S0044,,SUMDIAM,0.0,mm,1428,TA51
S0044,T01,LDIAM,0.0,mm,1456,TA52
S0044,T02,LDIAM,0.0,mm,1456,TA52
S0044,T03,LDIAM,0.0,mm,1456,TA52
S0044,T04,LDIAM,0.0,mm,1456,TA52
S0044,T05,LDIAM,0.0,mm,1456,TA52
S0044,,SUMDIAM,0.0,mm,1456,TA52
S0044,T01,LDIAM,0.0,mm,1484,TA53
S0044,T02,LDIAM,0.0,mm,1484,TA53
S0044,T03,LDIAM,0.0,mm,1484,TA53
S0044,T04,LDIAM,0.0,mm,1484,TA53
S0044,T05,LDIAM,0.0,mm,1484,TA53
S0044,,SUMDIAM,0.0,mm,1484,TA53
S0044,T01,LDIAM,0.0,mm,1512,TA54
S0044,T02,LDIAM,0.0,mm,1512,TA54
S0044,T03,LDIAM,0.0,mm,1512,TA54
S0044,T04,LDIAM,0.0,mm,1512,TA54
S0044,T05,LDIAM,0.0,mm,1512,TA54
S0044,,SUMDIAM,0.0,mm,1512,TA54
S0044,T01,LDIAM,0.0,mm,1540,TA55
S0044,T02,LDIAM,0.0,mm,1540,TA55
S0044,T03,LDIAM,0.0,mm,1540,TA55
S0044,T04,LDIAM,0.0,mm,1540,TA55
S0044,T05,LDIAM,0.0,mm,1540,TA55
S0044,,SUMDIAM,0.0,mm,1540,TA55
S0044,T01,LDIAM,0.0,mm,1568,TA56
S0044,T02,LDIAM,0.0,mm,1568,TA56
S0044,T03,LDIAM,0.0,mm,1568,TA56
S0044,T04,LDIAM,0.0,mm,1568,TA56
S0044,T05,LDIAM,0.0,mm,1568,TA56
S0044,,SUMDIAM,0.0,mm,1568,TA56
S0044,T01,LDIAM,0.0,mm,1596,TA57
S0044,T02,LDIAM,0.0,mm,1596,TA57
S0044,T03,LDIAM,0.0,mm,1596,TA57
S0044,T04,LDIAM,0.0,mm,1596,TA57
S0044,T05,LDIAM,0.0,mm,1596,TA57
S0044,,SUMDIAM,0.0,mm,1596,TA57
S0044,T01,LDIAM,0.0,mm,1624,TA58
S0044,T02,LDIAM,0.0,mm,1624,TA58
S0044,T03,LDIAM,0.0,mm,1624,TA58
S0044,T04,LDIAM,0.0,mm,1624,TA58
S0044,T05,LDIAM,0.0,mm,1624,TA58
S0044,,SUMDIAM,0.0,mm,1624,TA58
S0044,T01,LDIAM,0.0,mm,1652,TA59
S0044,T02,LDIAM,0.0,mm,1652,TA59
S0044,T03,LDIAM,0.0,mm,1652,TA59
S0044,T04,LDIAM,0.0,mm,1652,TA59
S0044,T05,LDIAM,0.0,mm,1652,TA59
S0044,,SUMDIAM,0.0,mm,1652,TA59
S0044,T01,LDIAM,0.0,mm,1680,TA60
S0044,T02,LDIAM,0.0,mm,1680,TA60
S0044,T03,LDIAM,0.0,mm,1680,TA60
S0044,T04,LDIAM,0.0,mm,1680,TA60
S0044,T05,LDIAM,0.0,mm,1680,TA60
S0044,,SUMDIAM,0.0,mm,1680,TA60
S0044,T01,LDIAM,0.0,mm,1708,TA61
S0044,T02,LDIAM,0.0,mm,1708,TA61
S0044,T03,LDIAM,0.0,mm,1708,TA61
S0044,T04,LDIAM,0.0,mm,1708,TA61
S0044,T05,LDIAM,0.0,mm,1708,TA61
S0044,,SUMDIAM,0.0,mm,1708,TA61
S0044,T01,LDIAM,0.0,mm,1736,TA62
S0044,T02,LDIAM,0.0,mm,1736,TA62
S0044,T03,LDIAM,0.0,mm,1736,TA62
S0044,T04,LDIAM,0.0,mm,1736,TA62
S0044,T05,LDIAM,0.0,mm,1736,TA62
S0044,,SUMDIAM,0.0,mm,1736,TA62
S0044,T01,LDIAM,0.0,mm,1764,TA63
S0044,T02,LDIAM,0.0,mm,1764,TA63
S0044,T03,LDIAM,0.0,mm,1764,TA63
S0044,T04,LDIAM,0.0,mm,1764,TA63
S0044,T05,LDIAM,0.0,mm,1764,TA63
S0044,,SUMDIAM,0.0,mm,1764,TA63
S0044,T01,LDIAM,0.0,mm,1792,TA64
S0044,T02,LDIAM,0.0,mm,1792,TA64
S0044,T03,LDIAM,0.0,mm,1792,TA64
S0044,T04,LDIAM,0.0,mm,1792,TA64
S0044,T05,LDIAM,0.0,mm,1792,TA64
S0044,,SUMDIAM,0.0,mm,1792,TA64
S0044,T01,LDIAM,0.0,mm,1820,TA65
S0044,T02,LDIAM,0.0,mm,1820,TA65
S0044,T03,LDIAM,0.0,mm,1820,TA65
S0044,T04,LDIAM,0.0,mm,1820,TA65
S0044,T05,LDIAM,0.0,mm,1820,TA65
S0044,,SUMDIAM,0.0,mm,1820,TA65
S0044,T01,LDIAM,0.0,mm,1848,TA66
S0044,T02,LDIAM,0.0,mm,1848,TA66
S0044,T03,LDIAM,0.0,mm,1848,TA66
S0044,T04,LDIAM,0.0,mm,1848,TA66
S0044,T05,LDIAM,0.0,mm,1848,TA66
S0044,,SUMDIAM,0.0,mm,1848,TA66
S0044,T01,LDIAM,0.0,mm,1876,TA67
S0044,T02,LDIAM,0.0,mm,1876,TA67
S0044,T03,LDIAM,0.0,mm,1876,TA67
S0044,T04,LDIAM,0.0,mm,1876,TA67
S0044,T05,LDIAM,0.0,mm,1876,TA67
S0044,,SUMDIAM,0.0,mm,1876,TA67
S0044,T01,LDIAM,0.0,mm,1904,TA68
S0044,T02,LDIAM,0.0,mm,1904,TA68
S0044,T03,LDIAM,0.0,mm,1904,TA68
S0044,T04,LDIAM,0.0,mm,1904,TA68
S0044,T05,LDIAM,0.0,mm,1904,TA68
S0044,,SUMDIAM,0.0,mm,1904,TA68
S0044,T01,LDIAM,0.0,mm,1932,TA69
S0044,T02,LDIAM,0.0,mm,1932,TA69
S0044,T03,LDIAM,0.0,mm,1932,TA69
S0044,T04,LDIAM,0.0,mm,1932,TA69
S0044,T05,LDIAM,0.0,mm,1932,TA69
S0044,,SUMDIAM,0.0,mm,1932,TA69
S0044,T01,LDIAM,0.0,mm,1960,TA70
S0044,T02,LDIAM,0.0,mm,1960,TA70
S0044,T03,LDIAM,0.0,mm,1960,TA70
S0044,T04,LDIAM,0.0,mm,1960,TA70
S0044,T05,LDIAM,0.0,mm,1960,TA70
S0044,,SUMDIAM,0.0,mm,1960,TA70
S0044,T01,LDIAM,0.0,mm,1988,TA71
S0044,T02,LDIAM,0.0,mm,1988,TA71
S0044,T03,LDIAM,0.0,mm,1988,TA71
S0044,T04,LDIAM,0.0,mm,1988,TA71
S0044,T05,LDIAM,0.0,mm,1988,TA71
S0044,,SUMDIAM,0.0,mm,1988,TA71
S0044,T01,LDIAM,0.0,mm,2016,TA72
S0044,T02,LDIAM,0.0,mm,2016,TA72
S0044,T03,LDIAM,0.0,mm,2016,TA72
S0044,T04,LDIAM,0.0,mm,2016,TA72
S0044,T05,LDIAM,0.0,mm,2016,TA72
S0044,,SUMDIAM,0.0,mm,2016,TA72
S0044,T01,LDIAM,0.0,mm,2044,TA73
S0044,T02,LDIAM,0.0,mm,2044,TA73
S0044,T03,LDIAM,0.0,mm,2044,TA73
S0044,T04,LDIAM,0.0,mm,2044,TA73
S0044,T05,LDIAM,0.0,mm,2044,TA73
S0044,,SUMDIAM,0.0,mm,2044,TA73
S0044,T01,LDIAM,0.0,mm,2072,TA74
S0044,T02,LDIAM,0.0,mm,2072,TA74
S0044,T03,LDIAM,0.0,mm,2072,TA74
S0044,T04,LDIAM,0.0,mm,2072,TA74
S0044,T05,LDIAM,0.0,mm,2072,TA74
S0044,,SUMDIAM,0.0,mm,2072,TA74
S0044,T01,LDIAM,0.0,mm,2100,TA75
S0044,T02,LDIAM,0.0,mm,2100,TA75
S0044,T03,LDIAM,0.0,mm,2100,TA75
S0044,T04,LDIAM,0.0,mm,2100,TA75
S0044,T05,LDIAM,0.0,mm,2100,TA75
S0044,,SUMDIAM,0.0,mm,2100,TA75
S0044,T01,LDIAM,0.0,mm,2128,TA76
S0044,T02,LDIAM,0.0,mm,2128,TA76
S0044,T03,LDIAM,0.0,mm,2128,TA76
S0044,T04,LDIAM,0.0,mm,2128,TA76
S0044,T05,LDIAM,0.0,mm,2128,TA76
S0044,,SUMDIAM,0.0,mm,2128,TA76
S0044,T01,LDIAM,0.0,mm,2156,TA77
S0044,T02,LDIAM,0.0,mm,2156,TA77
S0044,T03,LDIAM,0.0,mm,2156,TA77
S0044,T04,LDIAM,0.0,mm,2156,TA77
S0044,T05,LDIAM,0.0,mm,2156,TA77
S0044,,SUMDIAM,0.0,mm,2156,TA77
S0044,T01,LDIAM,0.0,mm,2184,TA78
S0044,T02,LDIAM,0.0,mm,2184,TA78
S0044,T03,LDIAM,0.0,mm,2184,TA78
S0044,T04,LDIAM,0.0,mm,2184,TA78
S0044,T05,LDIAM,0.0,mm,2184,TA78
S0044,,SUMDIAM,0.0,mm,2184,TA78
S0044,T01,LDIAM,0.0,mm,2212,TA79
S0044,T02,LDIAM,0.0,mm,2212,TA79
S0044,T03,LDIAM,0.0,mm,2212,TA79
S0044,T04,LDIAM,0.0,mm,2212,TA79
S0044,T05,LDIAM,0.0,mm,2212,TA79
S0044,,SUMDIAM,0.0,mm,2212,TA79
S0044,T01,LDIAM,0.0,mm,2240,TA80
S0044,T02,LDIAM,0.0,mm,2240,TA80
S0044,T03,LDIAM,0.0,mm,2240,TA80
S0044,T04,LDIAM,0.0,mm,2240,TA80
S0044,T05,LDIAM,0.0,mm,2240,TA80
S0044,,SUMDIAM,0.0,mm,2240,TA80
S0044,T01,LDIAM,0.0,mm,2268,TA81
S0044,T02,LDIAM,0.0,mm,2268,TA81
S0044,T03,LDIAM,0.0,mm,2268,TA81
S0044,T04,LDIAM,0.0,mm,2268,TA81
S0044,T05,LDIAM,0.0,mm,2268,TA81
S0044,,SUMDIAM,0.0,mm,2268,TA81
S0044,T01,LDIAM,0.0,mm,2296,TA82
S0044,T02,LDIAM,0.0,mm,2296,TA82
S0044,T03,LDIAM,0.0,mm,2296,TA82
S0044,T04,LDIAM,0.0,mm,2296,TA82
S0044,T05,LDIAM,0.0,mm,2296,TA82
S0044,,SUMDIAM,0.0,mm,2296,TA82
S0044,T01,LDIAM,0.0,mm,2324,TA83
S0044,T02,LDIAM,0.0,mm,2324,TA83
S0044,T03,LDIAM,0.0,mm,2324,TA83
S0044,T04,LDIAM,0.0,mm,2324,TA83
S0044,T05,LDIAM,0.0,mm,2324,TA83
S0044,,SUMDIAM,0.0,mm,2324,TA83
S0044,T01,LDIAM,0.0,mm,2352,TA84
S0044,T02,LDIAM,0.0,mm,2352,TA84
S0044,T03,LDIAM,0.0,mm,2352,TA84
S0044,T04,LDIAM,0.0,mm,2352,TA84
S0044,T05,LDIAM,0.0,mm,2352,TA84
S0044,,SUMDIAM,0.0,mm,2352,TA84
S0044,T01,LDIAM,0.0,mm,2380,TA85
S0044,T02,LDIAM,0.0,mm,2380,TA85
S0044,T03,LDIAM,0.0,mm,2380,TA85
S0044,T04,LDIAM,0.0,mm,2380,TA85
S0044,T05,LDIAM,0.0,mm,2380,TA85
S0044,,SUMDIAM,0.0,mm,2380,TA85
S0044,T01,LDIAM,0.0,mm,2408,TA86
S0044,T02,LDIAM,0.0,mm,2408,TA86
S0044,T03,LDIAM,0.0,mm,2408,TA86
S0044,T04,LDIAM,0.0,mm,2408,TA86
S0044,T05,LDIAM,0.0,mm,2408,TA86
S0044,,SUMDIAM,0.0,mm,2408,TA86
S0044,T01,LDIAM,0.0,mm,2436,TA87
S0044,T02,LDIAM,0.0,mm,2436,TA87
S0044,T03,LDIAM,0.0,mm,2436,TA87
S0044,T04,LDIAM,0.0,mm,2436,TA87
S0044,T05,LDIAM,0.0,mm,2436,TA87
S0044,,SUMDIAM,0.0,mm,2436,TA87
S0044,T01,LDIAM,0.0,mm,2464,TA88
S0044,T02,LDIAM,0.0,mm,2464,TA88
S0044,T03,LDIAM,0.0,mm,2464,TA88
S0044,T04,LDIAM,0.0,mm,2464,TA88
S0044,T05,LDIAM,0.0,mm,2464,TA88
S0044,,SUMDIAM,0.0,mm,2464,TA88
S0044,T01,LDIAM,0.0,mm,2492,TA89
S0044,T02,LDIAM,0.0,mm,2492,TA89
S0044,T03,LDIAM,0.0,mm,2492,TA89
S0044,T04,LDIAM,0.0,mm,2492,TA89
S0044,T05,LDIAM,0.0,mm,2492,TA89
S0044,,SUMDIAM,0.0,mm,2492,TA89
S0044,T01,LDIAM,0.0,mm,2520,TA90
S0044,T02,LDIAM,0.0,mm,2520,TA90
S0044,T03,LDIAM,0.0,mm,2520,TA90
S0044,T04,LDIAM,0.0,mm,2520,TA90
S0044,T05,LDIAM,0.0,mm,2520,TA90
S0044,,SUMDIAM,0.0,mm,2520,TA90
S0044,T01,LDIAM,0.0,mm,2548,TA91
S0044,T02,LDIAM,0.0,mm,2548,TA91
S0044,T03,LDIAM,0.0,mm,2548,TA91
S0044,T04,LDIAM,0.0,mm,2548,TA91
S0044,T05,LDIAM,0.0,mm,2548,TA91
S0044,,SUMDIAM,0.0,mm,2548,TA91
S0044,T01,LDIAM,0.0,mm,2576,TA92
S0044,T02,LDIAM,0.0,mm,2576,TA92
S0044,T03,LDIAM,0.0,mm,2576,TA92
S0044,T04,LDIAM,0.0,mm,2576,TA92
S0044,T05,LDIAM,0.0,mm,2576,TA92
S0044,,SUMDIAM,0.0,mm,2576,TA92
S0044,T01,LDIAM,0.0,mm,2604,TA93
S0044,T02,LDIAM,0.0,mm,2604,TA93
S0044,T03,LDIAM,0.0,mm,2604,TA93
S0044,T04,LDIAM,0.0,mm,2604,TA93
S0044,T05,LDIAM,0.0,mm,2604,TA93
S0044,,SUMDIAM,0.0,mm,2604,TA93
S0044,T01,LDIAM,0.0,mm,2632,TA94
S0044,T02,LDIAM,0.0,mm,2632,TA94
S0044,T03,LDIAM,0.0,mm,2632,TA94
S0044,T04,LDIAM,0.0,mm,2632,TA94
S0044,T05,LDIAM,0.0,mm,2632,TA94
S0044,,SUMDIAM,0.0,mm,2632,TA94
S0044,T01,LDIAM,0.0,mm,2660,TA95
S0044,T02,LDIAM,0.0,mm,2660,TA95
S0044,T03,LDIAM,0.0,mm,2660,TA95
S0044,T04,LDIAM,0.0,mm,2660,TA95
S0044,T05,LDIAM,0.0,mm,2660,TA95
S0044,,SUMDIAM,0.0,mm,2660,TA95
S0044,T01,LDIAM,0.0,mm,2688,TA96
S0044,T02,LDIAM,0.0,mm,2688,TA96
S0044,T03,LDIAM,0.0,mm,2688,TA96
S0044,T04,LDIAM,0.0,mm,2688,TA96
S0044,T05,LDIAM,0.0,mm,2688,TA96
S0044,,SUMDIAM,0.0,mm,2688,TA96
S0044,T01,LDIAM,0.0,mm,2716,TA97
S0044,T02,LDIAM,0.0,mm,2716,TA97
S0044,T03,LDIAM,0.0,mm,2716,TA97
S0044,T04,LDIAM,0.0,mm,2716,TA97
S0044,T05,LDIAM,0.0,mm,2716,TA97
S0044,,SUMDIAM,0.0,mm,2716,TA97
S0044,T01,LDIAM,0.0,mm,2744,TA98
S0044,T02,LDIAM,0.0,mm,2744,TA98
S0044,T03,LDIAM,0.0,mm,2744,TA98
S0044,T04,LDIAM,0.0,mm,2744,TA98
S0044,T05,LDIAM,0.0,mm,2744,TA98
S0044,,SUMDIAM,0.0,mm,2744,TA98
S0044,T01,LDIAM,0.0,mm,2772,TA99
S0044,T02,LDIAM,0.0,mm,2772,TA99
S0044,T03,LDIAM,0.0,mm,2772,TA99
S0044,T04,LDIAM,0.0,mm,2772,TA99
S0044,T05,LDIAM,0.0,mm,2772,TA99
S0044,,SUMDIAM,0.0,mm,2772,TA99
S0044,T01,LDIAM,0.0,mm,2800,TA100
S0044,T02,LDIAM,0.0,mm,2800,TA100
S0044,T03,LDIAM,0.0,mm,2800,TA100
S0044,T04,LDIAM,0.0,mm,2800,TA100
S0044,T05,LDIAM,0.0,mm,2800,TA100
S0044,,SUMDIAM,0.0,mm,2800,TA100
S0044,T01,LDIAM,0.0,mm,2828,TA101
S0044,T02,LDIAM,0.0,mm,2828,TA101
S0044,T03,LDIAM,0.0,mm,2828,TA101
S0044,T04,LDIAM,0.0,mm,2828,TA101
S0044,T05,LDIAM,0.0,mm,2828,TA101
S0044,,SUMDIAM,0.0,mm,2828,TA101
S0044,T01,LDIAM,0.0,mm,2856,TA102
S0044,T02,LDIAM,0.0,mm,2856,TA102
S0044,T03,LDIAM,0.0,mm,2856,TA102
S0044,T04,LDIAM,0.0,mm,2856,TA102
S0044,T05,LDIAM,0.0,mm,2856,TA102
S0044,,SUMDIAM,0.0,mm,2856,TA102
S0044,T01,LDIAM,0.0,mm,2884,TA103
S0044,T02,LDIAM,0.0,mm,2884,TA103
S0044,T03,LDIAM,0.0,mm,2884,TA103
S0044,T04,LDIAM,0.0,mm,2884,TA103
S0044,T05,LDIAM,0.0,mm,2884,TA103
S0044,,SUMDIAM,0.0,mm,2884,TA103
S0044,T01,LDIAM,0.0,mm,2912,TA104
S0044,T02,LDIAM,0.0,mm,2912,TA104
S0044,T03,LDIAM,0.0,mm,2912,TA104
S0044,T04,LDIAM,0.0,mm,2912,TA104
S0044,T05,LDIAM,0.0,mm,2912,TA104
S0044,,SUMDIAM,0.0,mm,2912,TA104
S0044,T01,LDIAM,0.0,mm,2940,TA105
S0044,T02,LDIAM,0.0,mm,2940,TA105
S0044,T03,LDIAM,0.0,mm,2940,TA105
S0044,T04,LDIAM,0.0,mm,2940,TA105
S0044,T05,LDIAM,0.0,mm,2940,TA105
S0044,,SUMDIAM,0.0,mm,2940,TA105
S0044,T01,LDIAM,0.0,mm,2968,TA106
S0044,T02,LDIAM,0.0,mm,2968,TA106
S0044,T03,LDIAM,0.0,mm,2968,TA106
S0044,T04,LDIAM,0.0,mm,2968,TA106
S0044,T05,LDIAM,0.0,mm,2968,TA106
S0044,,SUMDIAM,0.0,mm,2968,TA106
S0044,T01,LDIAM,0.0,mm,2996,TA107
S0044,T02,LDIAM,0.0,mm,2996,TA107
S0044,T03,LDIAM,0.0,mm,2996,TA107
S0044,T04,LDIAM,0.0,mm,2996,TA107
S0044,T05,LDIAM,0.0,mm,2996,TA107
S0044,,SUMDIAM,0.0,mm,2996,TA107
S0044,T01,LDIAM,0.0,mm,3024,TA108
S0044,T02,LDIAM,0.0,mm,3024,TA108
S0044,T03,LDIAM,0.0,mm,3024,TA108
S0044,T04,LDIAM,0.0,mm,3024,TA108
S0044,T05,LDIAM,0.0,mm,3024,TA108
S0044,,SUMDIAM,0.0,mm,3024,TA108
S0044,T01,LDIAM,0.0,mm,3052,TA109
S0044,T02,LDIAM,0.0,mm,3052,TA109
S0044,T03,LDIAM,0.0,mm,3052,TA109
S0044,T04,LDIAM,0.0,mm,3052,TA109
S0044,T05,LDIAM,0.0,mm,3052,TA109
S0044,,SUMDIAM,0.0,mm,3052,TA109
S0044,T01,LDIAM,0.0,mm,3080,TA110
S0044,T02,LDIAM,0.0,mm,3080,TA110
S0044,T03,LDIAM,0.0,mm,3080,TA110
S0044,T04,LDIAM,0.0,mm,3080,TA110
S0044,T05,LDIAM,0.0,mm,3080,TA110
S0044,,SUMDIAM,0.0,mm,3080,TA110
S0044,T01,LDIAM,0.0,mm,3108,TA111
S0044,T02,LDIAM,0.0,mm,3108,TA111
S0044,T03,LDIAM,0.0,mm,3108,TA111
S0044,T04,LDIAM,0.0,mm,3108,TA111
S0044,T05,LDIAM,0.0,mm,3108,TA111
S0044,,SUMDIAM,0.0,mm,3108,TA111
S0044,T01,LDIAM,0.0,mm,3136,TA112
S0044,T02,LDIAM,0.0,mm,3136,TA112
S0044,T03,LDIAM,0.0,mm,3136,TA112
S0044,T04,LDIAM,0.0,mm,3136,TA112
S0044,T05,LDIAM,0.0,mm,3136,TA112
S0044,,SUMDIAM,0.0,mm,3136,TA112
S0044,T01,LDIAM,0.0,mm,3164,TA113
S0044,T02,LDIAM,0.0,mm,3164,TA113
S0044,T03,LDIAM,0.0,mm,3164,TA113
S0044,T04,LDIAM,0.0,mm,3164,TA113
S0044,T05,LDIAM,0.0,mm,3164,TA113
S0044,,SUMDIAM,0.0,mm,3164,TA113
S0044,T01,LDIAM,0.0,mm,3192,TA114
S0044,T02,LDIAM,0.0,mm,3192,TA114
S0044,T03,LDIAM,0.0,mm,3192,TA114
S0044,T04,LDIAM,0.0,mm,3192,TA114
S0044,T05,LDIAM,0.0,mm,3192,TA114
S0044,,SUMDIAM,0.0,mm,3192,TA114
S0044,T01,LDIAM,0.0,mm,3220,TA115
S0044,T02,LDIAM,0.0,mm,3220,TA115
S0044,T03,LDIAM,0.0,mm,3220,TA115
S0044,T04,LDIAM,0.0,mm,3220,TA115
S0044,T05,LDIAM,0.0,mm,3220,TA115
S0044,,SUMDIAM,0.0,mm,3220,TA115
S0044,T01,LDIAM,0.0,mm,3248,TA116
S0044,T02,LDIAM,0.0,mm,3248,TA116
S0044,T03,LDIAM,0.0,mm,3248,TA116
S0044,T04,LDIAM,0.0,mm,3248,TA116
S0044,T05,LDIAM,0.0,mm,3248,TA116
S0044,,SUMDIAM,0.0,mm,3248,TA116
S0044,T01,LDIAM,0.0,mm,3276,TA117
S0044,T02,LDIAM,0.0,mm,3276,TA117
S0044,T03,LDIAM,0.0,mm,3276,TA117
S0044,T04,LDIAM,0.0,mm,3276,TA117
S0044,T05,LDIAM,0.0,mm,3276,TA117
S0044,,SUMDIAM,0.0,mm,3276,TA117
S0044,T01,LDIAM,0.0,mm,3304,TA118
S0044,T02,LDIAM,0.0,mm,3304,TA118
S0044,T03,LDIAM,0.0,mm,3304,TA118
S0044,T04,LDIAM,0.0,mm,3304,TA118
S0044,T05,LDIAM,0.0,mm,3304,TA118
S0044,,SUMDIAM,0.0,mm,3304,TA118
S0044,T01,LDIAM,0.0,mm,3332,TA119
S0044,T02,LDIAM,0.0,mm,3332,TA119
S0044,T03,LDIAM,0.0,mm,3332,TA119
S0044,T04,LDIAM,0.0,mm,3332,TA119
S0044,T05,LDIAM,0.0,mm,3332,TA119
S0044,,SUMDIAM,0.0,mm,3332,TA119
S0044,T01,LDIAM,0.0,mm,3360,TA120
S0044,T02,LDIAM,0.0,mm,3360,TA120
S0044,T03,LDIAM,0.0,mm,3360,TA120
S0044,T04,LDIAM,0.0,mm,3360,TA120
S0044,T05,LDIAM,0.0,mm,3360,TA120
S0044,,SUMDIAM,0.0,mm,3360,TA120
S0044,T01,LDIAM,1.2,mm,3388,TA121
S0044,T02,LDIAM,2.5,mm,3388,TA121
S0044,T03,LDIAM,1.3,mm,3388,TA121
S0044,T04,LDIAM,0.8,mm,3388,TA121
S0044,T05,LDIAM,2.6,mm,3388,TA121
S0044,,SUMDIAM,8.4,mm,3388,TA121
S0044,T01,LDIAM,1.2,mm,3416,TA122
S0044,T02,LDIAM,2.5,mm,3416,TA122
S0044,T03,LDIAM,1.3,mm,3416,TA122
S0044,T04,LDIAM,0.8,mm,3416,TA122
S0044,T05,LDIAM,2.6,mm,3416,TA122
S0044,,SUMDIAM,8.4,mm,3416,TA122
S0044,T01,LDIAM,1.2,mm,3444,TA123
S0044,T02,LDIAM,2.5,mm,3444,TA123
S0044,T03,LDIAM,1.3,mm,3444,TA123
S0044,T04,LDIAM,0.8,mm,3444,TA123
S0044,T05,LDIAM,2.6,mm,3444,TA123
S0044,,SUMDIAM,8.4,mm,3444,TA123
S0044,T01,LDIAM,1.2,mm,3472,TA124
S0044,T02,LDIAM,2.5,mm,3472,TA124
S0044,T03,LDIAM,1.3,mm,3472,TA124
S0044,T04,LDIAM,0.8,mm,3472,TA124
S0044,T05,LDIAM,2.6,mm,3472,TA124
S0044,,SUMDIAM,8.4,mm,3472,TA124
S0044,T01,LDIAM,1.2,mm,3500,TA125
S0044,T02,LDIAM,2.5,mm,3500,TA125
S0044,T03,LDIAM,1.3,mm,3500,TA125
S0044,T04,LDIAM,0.8,mm,3500,TA125
S0044,T05,LDIAM,2.6,mm,3500,TA125
S0044,,SUMDIAM,8.4,mm,3500,TA125
S0044,T01,LDIAM,1.2,mm,3528,TA126
S0044,T02,LDIAM,2.5,mm,3528,TA126
S0044,T03,LDIAM,1.3,mm,3528,TA126
S0044,T04,LDIAM,0.8,mm,3528,TA126
S0044,T05,LDIAM,2.6,mm,3528,TA126
S0044,,SUMDIAM,8.4,mm,3528,TA126
S0044,T01,LDIAM,1.2,mm,3556,TA127
S0044,T02,LDIAM,2.5,mm,3556,TA127
S0044,T03,LDIAM,1.3,mm,3556,TA127
S0044,T04,LDIAM,0.8,mm,3556,TA127
S0044,T05,LDIAM,2.6,mm,3556,TA127
S0044,,SUMDIAM,8.4,mm,3556,TA127
S0044,T01,LDIAM,1.2,mm,3584,TA128
S0044,T02,LDIAM,2.5,mm,3584,TA128
S0044,T03,LDIAM,1.3,mm,3584,TA128
S0044,T04,LDIAM,0.8,mm,3584,TA128
S0044,T05,LDIAM,2.6,mm,3584,TA128
S0044,,SUMDIAM,8.4,mm,3584,TA128
S0044,T01,LDIAM,1.2,mm,3612,TA129
S0044,T02,LDIAM,2.5,mm,3612,TA129
S0044,T03,LDIAM,1.3,mm,3612,TA129
S0044,T04,LDIAM,0.8,mm,3612,TA129
S0044,T05,LDIAM,2.6,mm,3612,TA129
S0044,,SUMDIAM,8.4,mm,3612,TA129
S0044,T01,LDIAM,1.2,mm,3640,TA130
S0044,T02,LDIAM,2.5,mm,3640,TA130
S0044,T03,LDIAM,1.3,mm,3640,TA130
S0044,T04,LDIAM,0.8,mm,3640,TA130
S0044,T05,LDIAM,2.6,mm,3640,TA130
S0044,,SUMDIAM,8.4,mm,3640,TA130
S0044,T01,LDIAM,1.2,mm,3668,TA131
S0044,T02,LDIAM,2.5,mm,3668,TA131
S0044,T03,LDIAM,1.3,mm,3668,TA131
S0044,T04,LDIAM,0.8,mm,3668,TA131
S0044,T05,LDIAM,2.6,mm,3668,TA131
S0044,,SUMDIAM,8.4,mm,3668,TA131
S0044,T01,LDIAM,1.2,mm,3696,TA132
S0044,T02,LDIAM,2.5,mm,3696,TA132
S0044,T03,LDIAM,1.3,mm,3696,TA132
S0044,T04,LDIAM,0.8,mm,3696,TA132
S0044,T05,LDIAM,2.6,mm,3696,TA132
S0044,,SUMDIAM,8.4,mm,3696,TA132
S0044,T01,LDIAM,1.2,mm,3724,TA133
S0044,T02,LDIAM,2.5,mm,3724,TA133
S0044,T03,LDIAM,1.3,mm,3724,TA133
S0044,T04,LDIAM,0.8,mm,3724,TA133
S0044,T05,LDIAM,2.6,mm,3724,TA133
S0044,,SUMDIAM,8.4,mm,3724,TA133
S0044,T01,LDIAM,1.2,mm,3752,TA134
S0044,T02,LDIAM,2.5,mm,3752,TA134
S0044,T03,LDIAM,1.3,mm,3752,TA134
S0044,T04,LDIAM,0.8,mm,3752,TA134
S0044,T05,LDIAM,2.6,mm,3752,TA134
S0044,,SUMDIAM,8.4,mm,3752,TA134
S0044,T01,LDIAM,1.2,mm,3780,TA135
S0044,T02,LDIAM,2.5,mm,3780,TA135
S0044,T03,LDIAM,1.3,mm,3780,TA135
S0044,T04,LDIAM,0.8,mm,3780,TA135
S0044,T05,LDIAM,2.6,mm,3780,TA135
S0044,,SUMDIAM,8.4,mm,3780,TA135
S0044,T01,LDIAM,1.2,mm,3808,TA136
S0044,T02,LDIAM,2.5,mm,3808,TA136
S0044,T03,LDIAM,1.3,mm,3808,TA136
S0044,T04,LDIAM,0.8,mm,3808,TA136
S0044,T05,LDIAM,2.6,mm,3808,TA136
S0044,,SUMDIAM,8.4,mm,3808,TA136
S0044,T01,LDIAM,1.2,mm,3836,TA137
S0044,T02,LDIAM,2.5,mm,3836,TA137
S0044,T03,LDIAM,1.3,mm,3836,TA137
S0044,T04,LDIAM,0.8,mm,3836,TA137
S0044,T05,LDIAM,2.6,mm,3836,TA137
S0044,,SUMDIAM,8.4,mm,3836,TA137
S0044,T01,LDIAM,1.2,mm,3864,TA138
S0044,T02,LDIAM,2.5,mm,3864,TA138
S0044,T03,LDIAM,1.3,mm,3864,TA138
S0044,T04,LDIAM,0.8,mm,3864,TA138
S0044,T05,LDIAM,2.6,mm,3864,TA138
S0044,,SUMDIAM,8.4,mm,3864,TA138
S0044,T01,LDIAM,1.2,mm,3892,TA139
S0044,T02,LDIAM,2.5,mm,3892,TA139
S0044,T03,LDIAM,1.3,mm,3892,TA139
S0044,T04,LDIAM,0.8,mm,3892,TA139
S0044,T05,LDIAM,2.6,mm,3892,TA139
S0044,,SUMDIAM,8.4,mm,3892,TA139
S0044,T01,LDIAM,1.2,mm,3920,TA140
S0044,T02,LDIAM,2.5,mm,3920,TA140
S0044,T03,LDIAM,1.3,mm,3920,TA140
S0044,T04,LDIAM,0.8,mm,3920,TA140
S0044,T05,LDIAM,2.6,mm,3920,TA140
S0044,,SUMDIAM,8.4,mm,3920,TA140
S0044,T01,LDIAM,1.2,mm,3948,TA141
S0044,T02,LDIAM,2.5,mm,3948,TA141
S0044,T03,LDIAM,1.3,mm,3948,TA141
S0044,T04,LDIAM,0.8,mm,3948,TA141
S0044,T05,LDIAM,2.6,mm,3948,TA141
S0044,,SUMDIAM,8.4,mm,3948,TA141
S0044,T01,LDIAM,1.2,mm,3976,TA142
S0044,T02,LDIAM,2.5,mm,3976,TA142
S0044,T03,LDIAM,1.3,mm,3976,TA142
S0044,T04,LDIAM,0.8,mm,3976,TA142
S0044,T05,LDIAM,2.6,mm,3976,TA142
S0044,,SUMDIAM,8.4,mm,3976,TA142
S0044,T01,LDIAM,1.2,mm,4004,TA143
S0044,T02,LDIAM,2.5,mm,4004,TA143
S0044,T03,LDIAM,1.3,mm,4004,TA143
S0044,T04,LDIAM,0.8,mm,4004,TA143
S0044,T05,LDIAM,2.6,mm,4004,TA143
S0044,,SUMDIAM,8.4,mm,4004,TA143
S0044,T01,LDIAM,1.2,mm,4032,TA144
S0044,T02,LDIAM,2.5,mm,4032,TA144
S0044,T03,LDIAM,1.3,mm,4032,TA144
S0044,T04,LDIAM,0.8,mm,4032,TA144
S0044,T05,LDIAM,2.6,mm,4032,TA144
S0044,,SUMDIAM,8.4,mm,4032,TA144
S0047,T01,LDIAM,49.8,mm,0,BASELINE
S0047,T02,LDIAM,40.5,mm,0,BASELINE
S0047,,SUMDIAM,90.3,mm,0,BASELINE
S0047,T01,LDIAM,24.9,mm,28,TA1
S0047,T02,LDIAM,20.2,mm,28,TA1
S0047,,SUMDIAM,45.1,mm,28,TA1
S0047,T01,LDIAM,0.0,mm,56,TA2
S0047,T02,LDIAM,0.0,mm,56,TA2
S0047,,SUMDIAM,0.0,mm,56,TA2
S0047,T01,LDIAM,0.0,mm,84,TA3
S0047,T02,LDIAM,0.0,mm,84,TA3
S0047,,SUMDIAM,0.0,mm,84,TA3
S0047,T01,LDIAM,0.0,mm,112,TA4
S0047,T02,LDIAM,0.0,mm,112,TA4
S0047,,SUMDIAM,0.0,mm,112,TA4
S0047,T01,LDIAM,0.0,mm,140,TA5
S0047,T02,LDIAM,0.0,mm,140,TA5
S0047,,SUMDIAM,0.0,mm,140,TA5
S0048,T01,LDIAM,28.4,mm,0,BASELINE
S0048,T02,LDIAM,33.2,mm,0,BASELINE
S0048,T03,LDIAM,40.2,mm,0,BASELINE
S0048,,SUMDIAM,101.8,mm,0,BASELINE
S0048,T01,LDIAM,17.9,mm,28,TA1
S0048,T02,LDIAM,21.0,mm,28,TA1
S0048,T03,LDIAM,25.4,mm,28,TA1
S0048,,SUMDIAM,64.3,mm,28,TA1
S0048,T01,LDIAM,7.5,mm,56,TA2
S0048,T02,LDIAM,8.8,mm,56,TA2
S0048,T03,LDIAM,10.6,mm,56,TA2
S0048,,SUMDIAM,26.9,mm,56,TA2
S0048,T01,LDIAM,7.5,mm,84,TA3
S0048,T02,LDIAM,8.8,mm,84,TA3
S0048,T03,LDIAM,10.6,mm,84,TA3
S0048,,SUMDIAM,26.9,mm,84,TA3
S0048,T01,LDIAM,7.5,mm,112,TA4
S0048,T02,LDIAM,8.8,mm,112,TA4
S0048,T03,LDIAM,10.6,mm,112,TA4
S0048,,SUMDIAM,26.9,mm,112,TA4
S0048,T01,LDIAM,7.5,mm,140,TA5
S0048,T02,LDIAM,8.8,mm,140,TA5
S0048,T03,LDIAM,10.6,mm,140,TA5
S0048,,SUMDIAM,26.9,mm,140,TA5
S0048,T01,LDIAM,7.5,mm,168,TA6
S0048,T02,LDIAM,8.8,mm,168,TA6
S0048,T03,LDIAM,10.6,mm,168,TA6
S0048,,SUMDIAM,26.9,mm,168,TA6
S0048,T01,LDIAM,7.5,mm,196,TA7
S0048,T02,LDIAM,8.8,mm,196,TA7
S0048,T03,LDIAM,10.6,mm,196,TA7
S0048,,SUMDIAM,26.9,mm,196,TA7
S0048,T01,LDIAM,7.5,mm,224,TA8
S0048,T02,LDIAM,8.8,mm,224,TA8
S0048,T03,LDIAM,10.6,mm,224,TA8
S0048,,SUMDIAM,26.9,mm,224,TA8
S0048,T01,LDIAM,7.5,mm,252,TA9
S0048,T02,LDIAM,8.8,mm,252,TA9
S0048,T03,LDIAM,10.6,mm,252,TA9
S0048,,SUMDIAM,26.9,mm,252,TA9
S0048,T01,LDIAM,7.5,mm,280,TA10
S0048,T02,LDIAM,8.8,mm,280,TA10
S0048,T03,LDIAM,10.6,mm,280,TA10
S0048,,SUMDIAM,26.9,mm,280,TA10
S0048,T01,LDIAM,7.5,mm,308,TA11
S0048,T02,LDIAM,8.8,mm,308,TA11
S0048,T03,LDIAM,10.6,mm,308,TA11
S0048,,SUMDIAM,26.9,mm,308,TA11
S0048,T01,LDIAM,7.5,mm,336,TA12
S0048,T02,LDIAM,8.8,mm,336,TA12
S0048,T03,LDIAM,10.6,mm,336,TA12
S0048,,SUMDIAM,26.9,mm,336,TA12
S0048,T01,LDIAM,7.5,mm,364,TA13
S0048,T02,LDIAM,8.8,mm,364,TA13
S0048,T03,LDIAM,10.6,mm,364,TA13
S0048,,SUMDIAM,26.9,mm,364,TA13
S0048,T01,LDIAM,7.5,mm,392,TA14
S0048,T02,LDIAM,8.8,mm,392,TA14
S0048,T03,LDIAM,10.6,mm,392,TA14
S0048,,SUMDIAM,26.9,mm,392,TA14
S0048,T01,LDIAM,7.5,mm,420,TA15
S0048,T02,LDIAM,8.8,mm,420,TA15
S0048,T03,LDIAM,10.6,mm,420,TA15
S0048,,SUMDIAM,26.9,mm,420,TA15
S0048,T01,LDIAM,7.5,mm,448,TA16
S0048,T02,LDIAM,8.8,mm,448,TA16
S0048,T03,LDIAM,10.6,mm,448,TA16
S0048,,SUMDIAM,26.9,mm,448,TA16
S0049,T01,LDIAM,11.5,mm,0,BASELINE
S0049,T02,LDIAM,41.2,mm,0,BASELINE
S0049,T03,LDIAM,24.6,mm,0,BASELINE
S0049,T04,LDIAM,20.2,mm,0,BASELINE
S0049,T05,LDIAM,43.9,mm,0,BASELINE
S0049,,SUMDIAM,141.4,mm,0,BASELINE
S0049,T01,LDIAM,5.8,mm,28,TA1
S0049,T02,LDIAM,20.6,mm,28,TA1
S0049,T03,LDIAM,12.3,mm,28,TA1
S0049,T04,LDIAM,10.1,mm,28,TA1
S0049,T05,LDIAM,21.9,mm,28,TA1
S0049,,SUMDIAM,70.7,mm,28,TA1
S0049,T01,LDIAM,0.0,mm,56,TA2
S0049,T02,LDIAM,0.0,mm,56,TA2
S0049,T03,LDIAM,0.0,mm,56,TA2
S0049,T04,LDIAM,0.0,mm,56,TA2
S0049,T05,LDIAM,0.0,mm,56,TA2
S0049,,SUMDIAM,0.0,mm,56,TA2
S0049,T01,LDIAM,0.0,mm,84,TA3
S0049,T02,LDIAM,0.0,mm,84,TA3
S0049,T03,LDIAM,0.0,mm,84,TA3
S0049,T04,LDIAM,0.0,mm,84,TA3
S0049,T05,LDIAM,0.0,mm,84,TA3
S0049,,SUMDIAM,0.0,mm,84,TA3
S0049,T01,LDIAM,0.0,mm,112,TA4
S0049,T02,LDIAM,0.0,mm,112,TA4
S0049,T03,LDIAM,0.0,mm,112,TA4
S0049,T04,LDIAM,0.0,mm,112,TA4
S0049,T05,LDIAM,0.0,mm,112,TA4
S0049,,SUMDIAM,0.0,mm,112,TA4
S0049,T01,LDIAM,0.0,mm,140,TA5
S0049,T02,LDIAM,0.0,mm,140,TA5
S0049,T03,LDIAM,0.0,mm,140,TA5
S0049,T04,LDIAM,0.0,mm,140,TA5
S0049,T05,LDIAM,0.0,mm,140,TA5
S0049,,SUMDIAM,0.0,mm,140,TA5
S0049,T01,LDIAM,0.0,mm,168,TA6
S0049,T02,LDIAM,0.0,mm,168,TA6
S0049,T03,LDIAM,0.0,mm,168,TA6
S0049,T04,LDIAM,0.0,mm,168,TA6
S0049,T05,LDIAM,0.0,mm,168,TA6
S0049,,SUMDIAM,0.0,mm,168,TA6
S0049,T01,LDIAM,0.0,mm,196,TA7
S0049,T02,LDIAM,0.0,mm,196,TA7
S0049,T03,LDIAM,0.0,mm,196,TA7
S0049,T04,LDIAM,0.0,mm,196,TA7
S0049,T05,LDIAM,0.0,mm,196,TA7
S0049,,SUMDIAM,0.0,mm,196,TA7
S0049,T01,LDIAM,0.0,mm,224,TA8
S0049,T02,LDIAM,0.0,mm,224,TA8
S0049,T03,LDIAM,0.0,mm,224,TA8
S0049,T04,LDIAM,0.0,mm,224,TA8
S0049,T05,LDIAM,0.0,mm,224,TA8
S0049,,SUMDIAM,0.0,mm,224,TA8
S0049,T01,LDIAM,0.0,mm,252,TA9
S0049,T02,LDIAM,0.0,mm,252,TA9
S0049,T03,LDIAM,0.0,mm,252,TA9
S0049,T04,LDIAM,0.0,mm,252,TA9
S0049,T05,LDIAM,0.0,mm,252,TA9
S0049,,SUMDIAM,0.0,mm,252,TA9
S0049,T01,LDIAM,0.0,mm,280,TA10
S0049,T02,LDIAM,0.0,mm,280,TA10
S0049,T03,LDIAM,0.0,mm,280,TA10
S0049,T04,LDIAM,0.0,mm,280,TA10
S0049,T05,LDIAM,0.0,mm,280,TA10
S0049,,SUMDIAM,0.0,mm,280,TA10
S0049,T01,LDIAM,0.0,mm,308,TA11
S0049,T02,LDIAM,0.0,mm,308,TA11
S0049,T03,LDIAM,0.0,mm,308,TA11
S0049,T04,LDIAM,0.0,mm,308,TA11
S0049,T05,LDIAM,0.0,mm,308,TA11
S0049,,SUMDIAM,0.0,mm,308,TA11
S0049,T01,LDIAM,0.0,mm,336,TA12
S0049,T02,LDIAM,0.0,mm,336,TA12
S0049,T03,LDIAM,0.0,mm,336,TA12
S0049,T04,LDIAM,0.0,mm,336,TA12
S0049,T05,LDIAM,0.0,mm,336,TA12
S0049,,SUMDIAM,0.0,mm,336,TA12
S0049,T01,LDIAM,0.0,mm,364,TA13
S0049,T02,LDIAM,0.0,mm,364,TA13
S0049,T03,LDIAM,0.0,mm,364,TA13
S0049,T04,LDIAM,0.0,mm,364,TA13
S0049,T05,LDIAM,0.0,mm,364,TA13
S0049,,SUMDIAM,0.0,mm,364,TA13
S0049,T01,LDIAM,0.0,mm,392,TA14
S0049,T02,LDIAM,0.0,mm,392,TA14
S0049,T03,LDIAM,0.0,mm,392,TA14
S0049,T04,LDIAM,0.0,mm,392,TA14
S0049,T05,LDIAM,0.0,mm,392,TA14
S0049,,SUMDIAM,0.0,mm,392,TA14
S0049,T01,LDIAM,0.0,mm,420,TA15
S0049,T02,LDIAM,0.0,mm,420,TA15
S0049,T03,LDIAM,0.0,mm,420,TA15
S0049,T04,LDIAM,0.0,mm,420,TA15
S0049,T05,LDIAM,0.0,mm,420,TA15
S0049,,SUMDIAM,0.0,mm,420,TA15
S0049,T01,LDIAM,0.0,mm,448,TA16
S0049,T02,LDIAM,0.0,mm,448,TA16
S0049,T03,LDIAM,0.0,mm,448,TA16
S0049,T04,LDIAM,0.0,mm,448,TA16
S0049,T05,LDIAM,0.0,mm,448,TA16
S0049,,SUMDIAM,0.0,mm,448,TA16
S0049,T01,LDIAM,0.0,mm,476,TA17
S0049,T02,LDIAM,0.0,mm,476,TA17
S0049,T03,LDIAM,0.0,mm,476,TA17
S0049,T04,LDIAM,0.0,mm,476,TA17
S0049,T05,LDIAM,0.0,mm,476,TA17
S0049,,SUMDIAM,0.0,mm,476,TA17
S0049,T01,LDIAM,0.0,mm,504,TA18
S0049,T02,LDIAM,0.0,mm,504,TA18
S0049,T03,LDIAM,0.0,mm,504,TA18
S0049,T04,LDIAM,0.0,mm,504,TA18
S0049,T05,LDIAM,0.0,mm,504,TA18
S0049,,SUMDIAM,0.0,mm,504,TA18
S0049,T01,LDIAM,0.0,mm,532,TA19
S0049,T02,LDIAM,0.0,mm,532,TA19
S0049,T03,LDIAM,0.0,mm,532,TA19
S0049,T04,LDIAM,0.0,mm,532,TA19
S0049,T05,LDIAM,0.0,mm,532,TA19
S0049,,SUMDIAM,0.0,mm,532,TA19
S0049,T01,LDIAM,0.0,mm,560,TA20
S0049,T02,LDIAM,0.0,mm,560,TA20
S0049,T03,LDIAM,0.0,mm,560,TA20
S0049,T04,LDIAM,0.0,mm,560,TA20
S0049,T05,LDIAM,0.0,mm,560,TA20
S0049,,SUMDIAM,0.0,mm,560,TA20
S0049,T01,LDIAM,0.0,mm,588,TA21
S0049,T02,LDIAM,0.0,mm,588,TA21
S0049,T03,LDIAM,0.0,mm,588,TA21
S0049,T04,LDIAM,0.0,mm,588,TA21
S0049,T05,LDIAM,0.0,mm,588,TA21
S0049,,SUMDIAM,0.0,mm,588,TA21
S0049,T01,LDIAM,0.0,mm,616,TA22
S0049,T02,LDIAM,0.0,mm,616,TA22
S0049,T03,LDIAM,0.0,mm,616,TA22
S0049,T04,LDIAM,0.0,mm,616,TA22
S0049,T05,LDIAM,0.0,mm,616,TA22
S0049,,SUMDIAM,0.0,mm,616,TA22
S0049,T01,LDIAM,0.0,mm,644,TA23
S0049,T02,LDIAM,0.0,mm,644,TA23
S0049,T03,LDIAM,0.0,mm,644,TA23
S0049,T04,LDIAM,0.0,mm,644,TA23
S0049,T05,LDIAM,0.0,mm,644,TA23
S0049,,SUMDIAM,0.0,mm,644,TA23
S0049,T01,LDIAM,0.0,mm,672,TA24
S0049,T02,LDIAM,0.0,mm,672,TA24
S0049,T03,LDIAM,0.0,mm,672,TA24
S0049,T04,LDIAM,0.0,mm,672,TA24
S0049,T05,LDIAM,0.0,mm,672,TA24
S0049,,SUMDIAM,0.0,mm,672,TA24
S0049,T01,LDIAM,0.0,mm,700,TA25
S0049,T02,LDIAM,0.0,mm,700,TA25
S0049,T03,LDIAM,0.0,mm,700,TA25
S0049,T04,LDIAM,0.0,mm,700,TA25
S0049,T05,LDIAM,0.0,mm,700,TA25
S0049,,SUMDIAM,0.0,mm,700,TA25
S0049,T01,LDIAM,0.0,mm,728,TA26
S0049,T02,LDIAM,0.0,mm,728,TA26
S0049,T03,LDIAM,0.0,mm,728,TA26
S0049,T04,LDIAM,0.0,mm,728,TA26
S0049,T05,LDIAM,0.0,mm,728,TA26
S0049,,SUMDIAM,0.0,mm,728,TA26
S0049,T01,LDIAM,0.0,mm,756,TA27
S0049,T02,LDIAM,0.0,mm,756,TA27
S0049,T03,LDIAM,0.0,mm,756,TA27
S0049,T04,LDIAM,0.0,mm,756,TA27
S0049,T05,LDIAM,0.0,mm,756,TA27
S0049,,SUMDIAM,0.0,mm,756,TA27
S0049,T01,LDIAM,0.0,mm,784,TA28
S0049,T02,LDIAM,0.0,mm,784,TA28
S0049,T03,LDIAM,0.0,mm,784,TA28
S0049,T04,LDIAM,0.0,mm,784,TA28
S0049,T05,LDIAM,0.0,mm,784,TA28
S0049,,SUMDIAM,0.0,mm,784,TA28
S0049,T01,LDIAM,0.0,mm,812,TA29
S0049,T02,LDIAM,0.0,mm,812,TA29
S0049,T03,LDIAM,0.0,mm,812,TA29
S0049,T04,LDIAM,0.0,mm,812,TA29
S0049,T05,LDIAM,0.0,mm,812,TA29
S0049,,SUMDIAM,0.0,mm,812,TA29
S0049,T01,LDIAM,0.0,mm,840,TA30
S0049,T02,LDIAM,0.0,mm,840,TA30
S0049,T03,LDIAM,0.0,mm,840,TA30
S0049,T04,LDIAM,0.0,mm,840,TA30
S0049,T05,LDIAM,0.0,mm,840,TA30
S0049,,SUMDIAM,0.0,mm,840,TA30
S0049,T01,LDIAM,0.0,mm,868,TA31
S0049,T02,LDIAM,0.0,mm,868,TA31
S0049,T03,LDIAM,0.0,mm,868,TA31
S0049,T04,LDIAM,0.0,mm,868,TA31
S0049,T05,LDIAM,0.0,mm,868,TA31
S0049,,SUMDIAM,0.0,mm,868,TA31
S0049,T01,LDIAM,0.0,mm,896,TA32
S0049,T02,LDIAM,0.0,mm,896,TA32
S0049,T03,LDIAM,0.0,mm,896,TA32
S0049,T04,LDIAM,0.0,mm,896,TA32
S0049,T05,LDIAM,0.0,mm,896,TA32
S0049,,SUMDIAM,0.0,mm,896,TA32
S0049,T01,LDIAM,0.0,mm,924,TA33
S0049,T02,LDIAM,0.0,mm,924,TA33
S0049,T03,LDIAM,0.0,mm,924,TA33
S0049,T04,LDIAM,0.0,mm,924,TA33
S0049,T05,LDIAM,0.0,mm,924,TA33
S0049,,SUMDIAM,0.0,mm,924,TA33
S0049,T01,LDIAM,0.0,mm,952,TA34
S0049,T02,LDIAM,0.0,mm,952,TA34
S0049,T03,LDIAM,0.0,mm,952,TA34
S0049,T04,LDIAM,0.0,mm,952,TA34
S0049,T05,LDIAM,0.0,mm,952,TA34
S0049,,SUMDIAM,0.0,mm,952,TA34
S0049,T01,LDIAM,0.0,mm,980,TA35
S0049,T02,LDIAM,0.0,mm,980,TA35
S0049,T03,LDIAM,0.0,mm,980,TA35
S0049,T04,LDIAM,0.0,mm,980,TA35
S0049,T05,LDIAM,0.0,mm,980,TA35
S0049,,SUMDIAM,0.0,mm,980,TA35
S0049,T01,LDIAM,0.0,mm,1008,TA36
S0049,T02,LDIAM,0.0,mm,1008,TA36
S0049,T03,LDIAM,0.0,mm,1008,TA36
S0049,T04,LDIAM,0.0,mm,1008,TA36
S0049,T05,LDIAM,0.0,mm,1008,TA36
S0049,,SUMDIAM,0.0,mm,1008,TA36
S0049,T01,LDIAM,0.0,mm,1036,TA37
S0049,T02,LDIAM,0.0,mm,1036,TA37
S0049,T03,LDIAM,0.0,mm,1036,TA37
S0049,T04,LDIAM,0.0,mm,1036,TA37
S0049,T05,LDIAM,0.0,mm,1036,TA37
S0049,,SUMDIAM,0.0,mm,1036,TA37
S0049,T01,LDIAM,0.0,mm,1064,TA38
S0049,T02,LDIAM,0.0,mm,1064,TA38
S0049,T03,LDIAM,0.0,mm,1064,TA38
S0049,T04,LDIAM,0.0,mm,1064,TA38
S0049,T05,LDIAM,0.0,mm,1064,TA38
S0049,,SUMDIAM,0.0,mm,1064,TA38
S0049,T01,LDIAM,0.0,mm,1092,TA39
S0049,T02,LDIAM,0.0,mm,1092,TA39
S0049,T03,LDIAM,0.0,mm,1092,TA39
S0049,T04,LDIAM,0.0,mm,1092,TA39
S0049,T05,LDIAM,0.0,mm,1092,TA39
S0049,,SUMDIAM,0.0,mm,1092,TA39
S0049,T01,LDIAM,0.0,mm,1120,TA40
S0049,T02,LDIAM,0.0,mm,1120,TA40
S0049,T03,LDIAM,0.0,mm,1120,TA40
S0049,T04,LDIAM,0.0,mm,1120,TA40
S0049,T05,LDIAM,0.0,mm,1120,TA40
S0049,,SUMDIAM,0.0,mm,1120,TA40
S0049,T01,LDIAM,0.0,mm,1148,TA41
S0049,T02,LDIAM,0.0,mm,1148,TA41
S0049,T03,LDIAM,0.0,mm,1148,TA41
S0049,T04,LDIAM,0.0,mm,1148,TA41
S0049,T05,LDIAM,0.0,mm,1148,TA41
S0049,,SUMDIAM,0.0,mm,1148,TA41
S0049,T01,LDIAM,0.0,mm,1176,TA42
S0049,T02,LDIAM,0.0,mm,1176,TA42
S0049,T03,LDIAM,0.0,mm,1176,TA42
S0049,T04,LDIAM,0.0,mm,1176,TA42
S0049,T05,LDIAM,0.0,mm,1176,TA42
S0049,,SUMDIAM,0.0,mm,1176,TA42
S0049,T01,LDIAM,0.0,mm,1204,TA43
S0049,T02,LDIAM,0.0,mm,1204,TA43
S0049,T03,LDIAM,0.0,mm,1204,TA43
S0049,T04,LDIAM,0.0,mm,1204,TA43
S0049,T05,LDIAM,0.0,mm,1204,TA43
S0049,,SUMDIAM,0.0,mm,1204,TA43
S0049,T01,LDIAM,0.0,mm,1232,TA44
S0049,T02,LDIAM,0.0,mm,1232,TA44
S0049,T03,LDIAM,0.0,mm,1232,TA44
S0049,T04,LDIAM,0.0,mm,1232,TA44
S0049,T05,LDIAM,0.0,mm,1232,TA44
S0049,,SUMDIAM,0.0,mm,1232,TA44
S0049,T01,LDIAM,0.0,mm,1260,TA45
S0049,T02,LDIAM,0.0,mm,1260,TA45
S0049,T03,LDIAM,0.0,mm,1260,TA45
S0049,T04,LDIAM,0.0,mm,1260,TA45
S0049,T05,LDIAM,0.0,mm,1260,TA45
S0049,,SUMDIAM,0.0,mm,1260,TA45
S0049,T01,LDIAM,0.0,mm,1288,TA46
S0049,T02,LDIAM,0.0,mm,1288,TA46
S0049,T03,LDIAM,0.0,mm,1288,TA46
S0049,T04,LDIAM,0.0,mm,1288,TA46
S0049,T05,LDIAM,0.0,mm,1288,TA46
S0049,,SUMDIAM,0.0,mm,1288,TA46
S0049,T01,LDIAM,0.0,mm,1316,TA47
S0049,T02,LDIAM,0.0,mm,1316,TA47
S0049,T03,LDIAM,0.0,mm,1316,TA47
S0049,T04,LDIAM,0.0,mm,1316,TA47
S0049,T05,LDIAM,0.0,mm,1316,TA47
S0049,,SUMDIAM,0.0,mm,1316,TA47
S0049,T01,LDIAM,0.0,mm,1344,TA48
S0049,T02,LDIAM,0.0,mm,1344,TA48
S0049,T03,LDIAM,0.0,mm,1344,TA48
S0049,T04,LDIAM,0.0,mm,1344,TA48
S0049,T05,LDIAM,0.0,mm,1344,TA48
S0049,,SUMDIAM,0.0,mm,1344,TA48
S0049,T01,LDIAM,0.0,mm,1372,TA49
S0049,T02,LDIAM,0.0,mm,1372,TA49
S0049,T03,LDIAM,0.0,mm,1372,TA49
S0049,T04,LDIAM,0.0,mm,1372,TA49
S0049,T05,LDIAM,0.0,mm,1372,TA49
S0049,,SUMDIAM,0.0,mm,1372,TA49
S0049,T01,LDIAM,0.0,mm,1400,TA50
S0049,T02,LDIAM,0.0,mm,1400,TA50
S0049,T03,LDIAM,0.0,mm,1400,TA50
S0049,T04,LDIAM,0.0,mm,1400,TA50
S0049,T05,LDIAM,0.0,mm,1400,TA50
S0049,,SUMDIAM,0.0,mm,1400,TA50
S0050,T01,LDIAM,17.6,mm,0,BASELINE
S0050,T02,LDIAM,15.6,mm,0,BASELINE
S0050,,SUMDIAM,33.2,mm,0,BASELINE
S0050,T01,LDIAM,22.9,mm,28,TA1
S0050,T02,LDIAM,20.3,mm,28,TA1
S0050,,SUMDIAM,43.2,mm,28,TA1
S0053,T01,LDIAM,54.5,mm,0,BASELINE
S0053,,SUMDIAM,54.5,mm,0,BASELINE
S0053,T01,LDIAM,28.2,mm,28,TA1
S0053,,SUMDIAM,28.2,mm,28,TA1
S0053,T01,LDIAM,1.9,mm,56,TA2
S0053,,SUMDIAM,1.9,mm,56,TA2
S0053,T01,LDIAM,1.9,mm,84,TA3
S0053,,SUMDIAM,1.9,mm,84,TA3
S0053,T01,LDIAM,1.9,mm,112,TA4
S0053,,SUMDIAM,1.9,mm,112,TA4
S0053,T01,LDIAM,1.9,mm,140,TA5
S0053,,SUMDIAM,1.9,mm,140,TA5
S0053,T01,LDIAM,1.9,mm,168,TA6
S0053,,SUMDIAM,1.9,mm,168,TA6
S0053,T01,LDIAM,1.9,mm,196,TA7
S0053,,SUMDIAM,1.9,mm,196,TA7
S0053,T01,LDIAM,1.9,mm,224,TA8
S0053,,SUMDIAM,1.9,mm,224,TA8
S0053,T01,LDIAM,1.9,mm,252,TA9
S0053,,SUMDIAM,1.9,mm,252,TA9
S0053,T01,LDIAM,1.9,mm,280,TA10
S0053,,SUMDIAM,1.9,mm,280,TA10
S0056,T01,LDIAM,28.6,mm,0,BASELINE
S0056,T02,LDIAM,23.0,mm,0,BASELINE
S0056,,SUMDIAM,51.6,mm,0,BASELINE
S0056,T01,LDIAM,25.5,mm,28,TA1
S0056,T02,LDIAM,20.5,mm,28,TA1
S0056,,SUMDIAM,46.0,mm,28,TA1
S0056,T01,LDIAM,22.4,mm,56,TA2
S0056,T02,LDIAM,18.0,mm,56,TA2
S0056,,SUMDIAM,40.3,mm,56,TA2
S0056,T01,LDIAM,22.4,mm,84,TA3
S0056,T02,LDIAM,18.0,mm,84,TA3
S0056,,SUMDIAM,40.3,mm,84,TA3
S0056,T01,LDIAM,22.4,mm,112,TA4
S0056,T02,LDIAM,18.0,mm,112,TA4
S0056,,SUMDIAM,40.3,mm,112,TA4
S0056,T01,LDIAM,22.4,mm,140,TA5
S0056,T02,LDIAM,18.0,mm,140,TA5
S0056,,SUMDIAM,40.3,mm,140,TA5
S0056,T01,LDIAM,22.4,mm,168,TA6
S0056,T02,LDIAM,18.0,mm,168,TA6
S0056,,SUMDIAM,40.3,mm,168,TA6
S0056,T01,LDIAM,22.4,mm,196,TA7
S0056,T02,LDIAM,18.0,mm,196,TA7
S0056,,SUMDIAM,40.3,mm,196,TA7
S0056,T01,LDIAM,22.4,mm,224,TA8
S0056,T02,LDIAM,18.0,mm,224,TA8
S0056,,SUMDIAM,40.3,mm,224,TA8
S0056,T01,LDIAM,22.4,mm,252,TA9
S0056,T02,LDIAM,18.0,mm,252,TA9
S0056,,SUMDIAM,40.3,mm,252,TA9
S0056,T01,LDIAM,22.4,mm,280,TA10
S0056,T02,LDIAM,18.0,mm,280,TA10
S0056,,SUMDIAM,40.3,mm,280,TA10
S0058,T01,LDIAM,31.9,mm,0,BASELINE
S0058,T02,LDIAM,20.4,mm,0,BASELINE
S0058,,SUMDIAM,52.3,mm,0,BASELINE
S0058,T01,LDIAM,15.9,mm,28,TA1
S0058,T02,LDIAM,10.2,mm,28,TA1
S0058,,SUMDIAM,26.1,mm,28,TA1
S0058,T01,LDIAM,0.0,mm,56,TA2
S0058,T02,LDIAM,0.0,mm,56,TA2
S0058,,SUMDIAM,0.0,mm,56,TA2
S0063,T01,LDIAM,20.4,mm,0,BASELINE
S0063,,SUMDIAM,20.4,mm,0,BASELINE
S0063,T01,LDIAM,14.7,mm,28,TA1
S0063,,SUMDIAM,14.7,mm,28,TA1
S0063,T01,LDIAM,9.0,mm,56,TA2
S0063,,SUMDIAM,9.0,mm,56,TA2
S0063,T01,LDIAM,9.0,mm,84,TA3
S0063,,SUMDIAM,9.0,mm,84,TA3
S0063,T01,LDIAM,9.0,mm,112,TA4
S0063,,SUMDIAM,9.0,mm,112,TA4
S0063,T01,LDIAM,9.0,mm,140,TA5
S0063,,SUMDIAM,9.0,mm,140,TA5
S0063,T01,LDIAM,9.0,mm,168,TA6
S0063,,SUMDIAM,9.0,mm,168,TA6
S0063,T01,LDIAM,9.0,mm,196,TA7
S0063,,SUMDIAM,9.0,mm,196,TA7
S0063,T01,LDIAM,9.0,mm,224,TA8
S0063,,SUMDIAM,9.0,mm,224,TA8
S0063,T01,LDIAM,9.0,mm,252,TA9
S0063,,SUMDIAM,9.0,mm,252,TA9
S0063,T01,LDIAM,9.0,mm,280,TA10
S0063,,SUMDIAM,9.0,mm,280,TA10
S0063,T01,LDIAM,9.0,mm,308,TA11
S0063,,SUMDIAM,9.0,mm,308,TA11
S0063,T01,LDIAM,9.0,mm,336,TA12
S0063,,SUMDIAM,9.0,mm,336,TA12
S0063,T01,LDIAM,9.0,mm,364,TA13
S0063,,SUMDIAM,9.0,mm,364,TA13
S0063,T01,LDIAM,9.0,mm,392,TA14
S0063,,SUMDIAM,9.0,mm,392,TA14
S0063,T01,LDIAM,9.0,mm,420,TA15
S0063,,SUMDIAM,9.0,mm,420,TA15
S0063,T01,LDIAM,9.0,mm,448,TA16
S0063,,SUMDIAM,9.0,mm,448,TA16
S0063,T01,LDIAM,9.0,mm,476,TA17
S0063,,SUMDIAM,9.0,mm,476,TA17
S0063,T01,LDIAM,9.0,mm,504,TA18
S0063,,SUMDIAM,9.0,mm,504,TA18
S0063,T01,LDIAM,9.0,mm,532,TA19
S0063,,SUMDIAM,9.0,mm,532,TA19
S0063,T01,LDIAM,9.0,mm,560,TA20
S0063,,SUMDIAM,9.0,mm,560,TA20
S0063,T01,LDIAM,9.0,mm,588,TA21
S0063,,SUMDIAM,9.0,mm,588,TA21
S0063,T01,LDIAM,9.0,mm,616,TA22
S0063,,SUMDIAM,9.0,mm,616,TA22
S0063,T01,LDIAM,9.0,mm,644,TA23
S0063,,SUMDIAM,9.0,mm,644,TA23
S0063,T01,LDIAM,9.0,mm,672,TA24
S0063,,SUMDIAM,9.0,mm,672,TA24
S0063,T01,LDIAM,9.0,mm,700,TA25
S0063,,SUMDIAM,9.0,mm,700,TA25
S0063,T01,LDIAM,9.0,mm,728,TA26
S0063,,SUMDIAM,9.0,mm,728,TA26
S0063,T01,LDIAM,9.0,mm,756,TA27
S0063,,SUMDIAM,9.0,mm,756,TA27
S0063,T01,LDIAM,9.0,mm,784,TA28
S0063,,SUMDIAM,9.0,mm,784,TA28
S0063,T01,LDIAM,9.0,mm,812,TA29
S0063,,SUMDIAM,9.0,mm,812,TA29
S0063,T01,LDIAM,9.0,mm,840,TA30
S0063,,SUMDIAM,9.0,mm,840,TA30
S0063,T01,LDIAM,9.0,mm,868,TA31
S0063,,SUMDIAM,9.0,mm,868,TA31
S0063,T01,LDIAM,9.0,mm,896,TA32
S0063,,SUMDIAM,9.0,mm,896,TA32
S0063,T01,LDIAM,9.0,mm,924,TA33
S0063,,SUMDIAM,9.0,mm,924,TA33
S0063,T01,LDIAM,9.0,mm,952,TA34
S0063,,SUMDIAM,9.0,mm,952,TA34
S0063,T01,LDIAM,9.0,mm,980,TA35
S0063,,SUMDIAM,9.0,mm,980,TA35
S0063,T01,LDIAM,9.0,mm,1008,TA36
S0063,,SUMDIAM,9.0,mm,1008,TA36
S0063,T01,LDIAM,9.0,mm,1036,TA37
S0063,,SUMDIAM,9.0,mm,1036,TA37
S0063,T01,LDIAM,9.0,mm,1064,TA38
S0063,,SUMDIAM,9.0,mm,1064,TA38
S0063,T01,LDIAM,9.0,mm,1092,TA39
S0063,,SUMDIAM,9.0,mm,1092,TA39
S0063,T01,LDIAM,9.0,mm,1120,TA40
S0063,,SUMDIAM,9.0,mm,1120,TA40
S0063,T01,LDIAM,9.0,mm,1148,TA41
S0063,,SUMDIAM,9.0,mm,1148,TA41
S0063,T01,LDIAM,9.0,mm,1176,TA42
S0063,,SUMDIAM,9.0,mm,1176,TA42
S0063,T01,LDIAM,9.0,mm,1204,TA43
S0063,,SUMDIAM,9.0,mm,1204,TA43
S0063,T01,LDIAM,9.0,mm,1232,TA44
S0063,,SUMDIAM,9.0,mm,1232,TA44
S0063,T01,LDIAM,9.0,mm,1260,TA45
S0063,,SUMDIAM,9.0,mm,1260,TA45
S0063,T01,LDIAM,9.0,mm,1288,TA46
S0063,,SUMDIAM,9.0,mm,1288,TA46
S0063,T01,LDIAM,9.0,mm,1316,TA47
S0063,,SUMDIAM,9.0,mm,1316,TA47
S0063,T01,LDIAM,9.0,mm,1344,TA48
S0063,,SUMDIAM,9.0,mm,1344,TA48
S0063,T01,LDIAM,9.0,mm,1372,TA49
S0063,,SUMDIAM,9.0,mm,1372,TA49
S0063,T01,LDIAM,9.0,mm,1400,TA50
S0063,,SUMDIAM,9.0,mm,1400,TA50
S0063,T01,LDIAM,9.0,mm,1428,TA51
S0063,,SUMDIAM,9.0,mm,1428,TA51
S0063,T01,LDIAM,9.0,mm,1456,TA52
S0063,,SUMDIAM,9.0,mm,1456,TA52
S0063,T01,LDIAM,9.0,mm,1484,TA53
S0063,,SUMDIAM,9.0,mm,1484,TA53
S0063,T01,LDIAM,9.0,mm,1512,TA54
S0063,,SUMDIAM,9.0,mm,1512,TA54
S0063,T01,LDIAM,9.0,mm,1540,TA55
S0063,,SUMDIAM,9.0,mm,1540,TA55
S0063,T01,LDIAM,9.0,mm,1568,TA56
S0063,,SUMDIAM,9.0,mm,1568,TA56
S0063,T01,LDIAM,9.0,mm,1596,TA57
S0063,,SUMDIAM,9.0,mm,1596,TA57
S0063,T01,LDIAM,9.0,mm,1624,TA58
S0063,,SUMDIAM,9.0,mm,1624,TA58
S0063,T01,LDIAM,9.0,mm,1652,TA59
S0063,,SUMDIAM,9.0,mm,1652,TA59
S0063,T01,LDIAM,9.0,mm,1680,TA60
S0063,,SUMDIAM,9.0,mm,1680,TA60
S0063,T01,LDIAM,9.0,mm,1708,TA61
S0063,,SUMDIAM,9.0,mm,1708,TA61
S0063,T01,LDIAM,9.0,mm,1736,TA62
S0063,,SUMDIAM,9.0,mm,1736,TA62
S0063,T01,LDIAM,9.0,mm,1764,TA63
S0063,,SUMDIAM,9.0,mm,1764,TA63
S0063,T01,LDIAM,9.0,mm,1792,TA64
S0063,,SUMDIAM,9.0,mm,1792,TA64
S0063,T01,LDIAM,9.0,mm,1820,TA65
S0063,,SUMDIAM,9.0,mm,1820,TA65
S0063,T01,LDIAM,9.0,mm,1848,TA66
S0063,,SUMDIAM,9.0,mm,1848,TA66
S0063,T01,LDIAM,9.0,mm,1876,TA67
S0063,,SUMDIAM,9.0,mm,1876,TA67
S0063,T01,LDIAM,9.0,mm,1904,TA68
S0063,,SUMDIAM,9.0,mm,1904,TA68
S0063,T01,LDIAM,9.0,mm,1932,TA69
S0063,,SUMDIAM,9.0,mm,1932,TA69
S0063,T01,LDIAM,9.0,mm,1960,TA70
S0063,,SUMDIAM,9.0,mm,1960,TA70
S0063,T01,LDIAM,9.0,mm,1988,TA71
S0063,,SUMDIAM,9.0,mm,1988,TA71
S0063,T01,LDIAM,9.0,mm,2016,TA72
S0063,,SUMDIAM,9.0,mm,2016,TA72
S0063,T01,LDIAM,9.0,mm,2044,TA73
S0063,,SUMDIAM,9.0,mm,2044,TA73
S0063,T01,LDIAM,9.0,mm,2072,TA74
S0063,,SUMDIAM,9.0,mm,2072,TA74
S0063,T01,LDIAM,9.0,mm,2100,TA75
S0063,,SUMDIAM,9.0,mm,2100,TA75
S0063,T01,LDIAM,9.0,mm,2128,TA76
S0063,,SUMDIAM,9.0,mm,2128,TA76
S0063,T01,LDIAM,9.0,mm,2156,TA77
S0063,,SUMDIAM,9.0,mm,2156,TA77
S0063,T01,LDIAM,9.0,mm,2184,TA78
S0063,,SUMDIAM,9.0,mm,2184,TA78
S0063,T01,LDIAM,9.0,mm,2212,TA79
S0063,,SUMDIAM,9.0,mm,2212,TA79
S0063,T01,LDIAM,9.0,mm,2240,TA80
S0063,,SUMDIAM,9.0,mm,2240,TA80
S0063,T01,LDIAM,9.0,mm,2268,TA81
S0063,,SUMDIAM,9.0,mm,2268,TA81
S0063,T01,LDIAM,9.0,mm,2296,TA82
S0063,,SUMDIAM,9.0,mm,2296,TA82
S0063,T01,LDIAM,9.0,mm,2324,TA83
S0063,,SUMDIAM,9.0,mm,2324,TA83
S0063,T01,LDIAM,9.0,mm,2352,TA84
S0063,,SUMDIAM,9.0,mm,2352,TA84
S0063,T01,LDIAM,9.0,mm,2380,TA85
S0063,,SUMDIAM,9.0,mm,2380,TA85
S0063,T01,LDIAM,9.0,mm,2408,TA86
S0063,,SUMDIAM,9.0,mm,2408,TA86
S0063,T01,LDIAM,9.0,mm,2436,TA87
S0063,,SUMDIAM,9.0,mm,2436,TA87
S0063,T01,LDIAM,9.0,mm,2464,TA88
S0063,,SUMDIAM,9.0,mm,2464,TA88
S0063,T01,LDIAM,9.0,mm,2492,TA89
S0063,,SUMDIAM,9.0,mm,2492,TA89
S0063,T01,LDIAM,9.0,mm,2520,TA90
S0063,,SUMDIAM,9.0,mm,2520,TA90
S0063,T01,LDIAM,9.0,mm,2548,TA91
S0063,,SUMDIAM,9.0,mm,2548,TA91
S0063,T01,LDIAM,9.0,mm,2576,TA92
S0063,,SUMDIAM,9.0,mm,2576,TA92
S0063,T01,LDIAM,9.0,mm,2604,TA93
S0063,,SUMDIAM,9.0,mm,2604,TA93
S0063,T01,LDIAM,9.0,mm,2632,TA94
S0063,,SUMDIAM,9.0,mm,2632,TA94
S0063,T01,LDIAM,9.0,mm,2660,TA95
S0063,,SUMDIAM,9.0,mm,2660,TA95
S0063,T01,LDIAM,9.0,mm,2688,TA96
S0063,,SUMDIAM,9.0,mm,2688,TA96
S0063,T01,LDIAM,9.0,mm,2716,TA97
S0063,,SUMDIAM,9.0,mm,2716,TA97
S0063,T01,LDIAM,9.0,mm,2744,TA98
S0063,,SUMDIAM,9.0,mm,2744,TA98
S0063,T01,LDIAM,9.0,mm,2772,TA99
S0063,,SUMDIAM,9.0,mm,2772,TA99
S0063,T01,LDIAM,9.0,mm,2800,TA100
S0063,,SUMDIAM,9.0,mm,2800,TA100
S0063,T01,LDIAM,9.0,mm,2828,TA101
S0063,,SUMDIAM,9.0,mm,2828,TA101
S0064,T01,LDIAM,18.5,mm,0,BASELINE
S0064,T02,LDIAM,34.3,mm,0,BASELINE
S0064,T03,LDIAM,57.1,mm,0,BASELINE
S0064,T04,LDIAM,27.5,mm,0,BASELINE
S0064,,SUMDIAM,137.4,mm,0,BASELINE
S0064,T01,LDIAM,13.0,mm,28,TA1
S0064,T02,LDIAM,24.1,mm,28,TA1
S0064,T03,LDIAM,40.0,mm,28,TA1
S0064,T04,LDIAM,19.3,mm,28,TA1
S0064,,SUMDIAM,96.4,mm,28,TA1
S0064,T01,LDIAM,7.4,mm,56,TA2
S0064,T02,LDIAM,13.8,mm,56,TA2
S0064,T03,LDIAM,23.0,mm,56,TA2
S0064,T04,LDIAM,11.1,mm,56,TA2
S0064,,SUMDIAM,55.3,mm,56,TA2
S0064,T01,LDIAM,7.4,mm,84,TA3
S0064,T02,LDIAM,13.8,mm,84,TA3
S0064,T03,LDIAM,23.0,mm,84,TA3
S0064,T04,LDIAM,11.1,mm,84,TA3
S0064,,SUMDIAM,55.3,mm,84,TA3
S0064,T01,LDIAM,7.4,mm,112,TA4
S0064,T02,LDIAM,13.8,mm,112,TA4
S0064,T03,LDIAM,23.0,mm,112,TA4
S0064,T04,LDIAM,11.1,mm,112,TA4
S0064,,SUMDIAM,55.3,mm,112,TA4
S0064,T01,LDIAM,7.4,mm,140,TA5
S0064,T02,LDIAM,13.8,mm,140,TA5
S0064,T03,LDIAM,23.0,mm,140,TA5
S0064,T04,LDIAM,11.1,mm,140,TA5
S0064,,SUMDIAM,55.3,mm,140,TA5
S0064,T01,LDIAM,7.4,mm,168,TA6
S0064,T02,LDIAM,13.8,mm,168,TA6
S0064,T03,LDIAM,23.0,mm,168,TA6
S0064,T04,LDIAM,11.1,mm,168,TA6
S0064,,SUMDIAM,55.3,mm,168,TA6
S0064,T01,LDIAM,7.4,mm,196,TA7
S0064,T02,LDIAM,13.8,mm,196,TA7
S0064,T03,LDIAM,23.0,mm,196,TA7
S0064,T04,LDIAM,11.1,mm,196,TA7
S0064,,SUMDIAM,55.3,mm,196,TA7
S0064,T01,LDIAM,7.4,mm,224,TA8
S0064,T02,LDIAM,13.8,mm,224,TA8
S0064,T03,LDIAM,23.0,mm,224,TA8
S0064,T04,LDIAM,11.1,mm,224,TA8
S0064,,SUMDIAM,55.3,mm,224,TA8
S0064,T01,LDIAM,7.4,mm,252,TA9
S0064,T02,LDIAM,13.8,mm,252,TA9
S0064,T03,LDIAM,23.0,mm,252,TA9
S0064,T04,LDIAM,11.1,mm,252,TA9
S0064,,SUMDIAM,55.3,mm,252,TA9
S0064,T01,LDIAM,7.4,mm,280,TA10
S0064,T02,LDIAM,13.8,mm,280,TA10
S0064,T03,LDIAM,23.0,mm,280,TA10
S0064,T04,LDIAM,11.1,mm,280,TA10
S0064,,SUMDIAM,55.3,mm,280,TA10
S0064,T01,LDIAM,7.4,mm,308,TA11
S0064,T02,LDIAM,13.8,mm,308,TA11
S0064,T03,LDIAM,23.0,mm,308,TA11
S0064,T04,LDIAM,11.1,mm,308,TA11
S0064,,SUMDIAM,55.3,mm,308,TA11
S0064,T01,LDIAM,7.4,mm,336,TA12
S0064,T02,LDIAM,13.8,mm,336,TA12
S0064,T03,LDIAM,23.0,mm,336,TA12
S0064,T04,LDIAM,11.1,mm,336,TA12
S0064,,SUMDIAM,55.3,mm,336,TA12
S0064,T01,LDIAM,7.4,mm,364,TA13
S0064,T02,LDIAM,13.8,mm,364,TA13
S0064,T03,LDIAM,23.0,mm,364,TA13
S0064,T04,LDIAM,11.1,mm,364,TA13
S0064,,SUMDIAM,55.3,mm,364,TA13
S0064,T01,LDIAM,7.4,mm,392,TA14
S0064,T02,LDIAM,13.8,mm,392,TA14
S0064,T03,LDIAM,23.0,mm,392,TA14
S0064,T04,LDIAM,11.1,mm,392,TA14
S0064,,SUMDIAM,55.3,mm,392,TA14
S0064,T01,LDIAM,7.4,mm,420,TA15
S0064,T02,LDIAM,13.8,mm,420,TA15
S0064,T03,LDIAM,23.0,mm,420,TA15
S0064,T04,LDIAM,11.1,mm,420,TA15
S0064,,SUMDIAM,55.3,mm,420,TA15
S0064,T01,LDIAM,7.4,mm,448,TA16
S0064,T02,LDIAM,13.8,mm,448,TA16
S0064,T03,LDIAM,23.0,mm,448,TA16
S0064,T04,LDIAM,11.1,mm,448,TA16
S0064,,SUMDIAM,55.3,mm,448,TA16
S0064,T01,LDIAM,7.4,mm,476,TA17
S0064,T02,LDIAM,13.8,mm,476,TA17
S0064,T03,LDIAM,23.0,mm,476,TA17
S0064,T04,LDIAM,11.1,mm,476,TA17
S0064,,SUMDIAM,55.3,mm,476,TA17
S0064,T01,LDIAM,7.4,mm,504,TA18
S0064,T02,LDIAM,13.8,mm,504,TA18
S0064,T03,LDIAM,23.0,mm,504,TA18
S0064,T04,LDIAM,11.1,mm,504,TA18
S0064,,SUMDIAM,55.3,mm,504,TA18
S0064,T01,LDIAM,7.4,mm,532,TA19
S0064,T02,LDIAM,13.8,mm,532,TA19
S0064,T03,LDIAM,23.0,mm,532,TA19
S0064,T04,LDIAM,11.1,mm,532,TA19
S0064,,SUMDIAM,55.3,mm,532,TA19
S0064,T01,LDIAM,7.4,mm,560,TA20
S0064,T02,LDIAM,13.8,mm,560,TA20
S0064,T03,LDIAM,23.0,mm,560,TA20
S0064,T04,LDIAM,11.1,mm,560,TA20
S0064,,SUMDIAM,55.3,mm,560,TA20
S0064,T01,LDIAM,7.4,mm,588,TA21
S0064,T02,LDIAM,13.8,mm,588,TA21
S0064,T03,LDIAM,23.0,mm,588,TA21
S0064,T04,LDIAM,11.1,mm,588,TA21
S0064,,SUMDIAM,55.3,mm,588,TA21
S0064,T01,LDIAM,7.4,mm,616,TA22
S0064,T02,LDIAM,13.8,mm,616,TA22
S0064,T03,LDIAM,23.0,mm,616,TA22
S0064,T04,LDIAM,11.1,mm,616,TA22
S0064,,SUMDIAM,55.3,mm,616,TA22
S0064,T01,LDIAM,7.4,mm,644,TA23
S0064,T02,LDIAM,13.8,mm,644,TA23
S0064,T03,LDIAM,23.0,mm,644,TA23
S0064,T04,LDIAM,11.1,mm,644,TA23
S0064,,SUMDIAM,55.3,mm,644,TA23
S0064,T01,LDIAM,7.4,mm,672,TA24
S0064,T02,LDIAM,13.8,mm,672,TA24
S0064,T03,LDIAM,23.0,mm,672,TA24
S0064,T04,LDIAM,11.1,mm,672,TA24
S0064,,SUMDIAM,55.3,mm,672,TA24
S0064,T01,LDIAM,7.4,mm,700,TA25
S0064,T02,LDIAM,13.8,mm,700,TA25
S0064,T03,LDIAM,23.0,mm,700,TA25
S0064,T04,LDIAM,11.1,mm,700,TA25
S0064,,SUMDIAM,55.3,mm,700,TA25
S0064,T01,LDIAM,7.4,mm,728,TA26
S0064,T02,LDIAM,13.8,mm,728,TA26
S0064,T03,LDIAM,23.0,mm,728,TA26
S0064,T04,LDIAM,11.1,mm,728,TA26
S0064,,SUMDIAM,55.3,mm,728,TA26
S0064,T01,LDIAM,7.4,mm,756,TA27
