USUBJID,TRLNKID,TRTESTCD,TRORRES,TRORRESU,TRDY,VISIT
S0001,T01,LDIAM,38.4,mm,0,BASELINE
S0001,,SUMDIAM,38.4,mm,0,BASELINE
S0001,T01,LDIAM,36.2,mm,56,TA1
S0001,,SUMDIAM,36.2,mm,56,TA1
S0001,T01,LDIAM,45.4,mm,112,TA2
S0001,,SUMDIAM,45.4,mm,112,TA2
S0002,T01,LDIAM,59.0,mm,0,BASELINE
S0002,T02,LDIAM,54.8,mm,0,BASELINE
S0002,T03,LDIAM,50.8,mm,0,BASELINE
S0002,T04,LDIAM,44.6,mm,0,BASELINE
S0002,T05,LDIAM,54.6,mm,0,BASELINE
S0002,,SUMDIAM,263.8,mm,0,BASELINE
S0003,T01,LDIAM,15.0,mm,0,BASELINE
S0003,,SUMDIAM,15.0,mm,0,BASELINE
S0003,T01,LDIAM,13.1,mm,56,TA1
S0003,,SUMDIAM,13.1,mm,56,TA1
S0003,T01,LDIAM,11.3,mm,112,TA2
S0003,,SUMDIAM,11.3,mm,112,TA2
S0003,T01,LDIAM,11.3,mm,168,TA3
S0003,,SUMDIAM,11.3,mm,168,TA3
S0003,T01,LDIAM,11.3,mm,224,TA4
S0003,,SUMDIAM,11.3,mm,224,TA4
S0003,T01,LDIAM,11.3,mm,280,TA5
S0003,,SUMDIAM,11.3,mm,280,TA5
S0004,T01,LDIAM,20.4,mm,0,BASELINE
S0004,T02,LDIAM,26.0,mm,0,BASELINE
S0004,T03,LDIAM,33.0,mm,0,BASELINE
S0004,,SUMDIAM,79.4,mm,0,BASELINE
S0004,T01,LDIAM,15.1,mm,56,TA1
S0004,T02,LDIAM,19.3,mm,56,TA1
S0004,T03,LDIAM,24.5,mm,56,TA1
S0004,,SUMDIAM,58.9,mm,56,TA1
S0004,T01,LDIAM,9.9,mm,112,TA2
S0004,T02,LDIAM,12.6,mm,112,TA2
S0004,T03,LDIAM,16.0,mm,112,TA2
S0004,,SUMDIAM,38.4,mm,112,TA2
S0004,T01,LDIAM,9.9,mm,168,TA3
S0004,T02,LDIAM,12.6,mm,168,TA3
S0004,T03,LDIAM,16.0,mm,168,TA3
S0004,,SUMDIAM,38.4,mm,168,TA3
S0004,T01,LDIAM,9.9,mm,224,TA4
S0004,T02,LDIAM,12.6,mm,224,TA4
S0004,T03,LDIAM,16.0,mm,224,TA4
S0004,,SUMDIAM,38.4,mm,224,TA4
S0004,T01,LDIAM,12.9,mm,280,TA5
S0004,T02,LDIAM,16.4,mm,280,TA5
S0004,T03,LDIAM,20.8,mm,280,TA5
S0004,,SUMDIAM,50.0,mm,280,TA5
S0004,T01,LDIAM,12.9,mm,336,TA6
S0004,T02,LDIAM,16.4,mm,336,TA6
S0004,T03,LDIAM,20.8,mm,336,TA6
S0004,,SUMDIAM,50.0,mm,336,TA6
S0004,T01,LDIAM,12.9,mm,392,TA7
S0004,T02,LDIAM,16.4,mm,392,TA7
S0004,T03,LDIAM,20.8,mm,392,TA7
S0004,,SUMDIAM,50.0,mm,392,TA7
S0004,T01,LDIAM,12.9,mm,448,TA8
S0004,T02,LDIAM,16.4,mm,448,TA8
S0004,T03,LDIAM,20.8,mm,448,TA8
S0004,,SUMDIAM,50.0,mm,448,TA8
S0005,T01,LDIAM,19.8,mm,0,BASELINE
S0005,T02,LDIAM,45.6,mm,0,BASELINE
S0005,T03,LDIAM,49.8,mm,0,BASELINE
S0005,,SUMDIAM,115.2,mm,0,BASELINE
S0005,T01,LDIAM,24.8,mm,56,TA1
S0005,T02,LDIAM,57.0,mm,56,TA1
S0005,T03,LDIAM,62.2,mm,56,TA1
S0005,,SUMDIAM,144.0,mm,56,TA1
S0006,T01,LDIAM,20.0,mm,0,BASELINE
S0006,T02,LDIAM,18.2,mm,0,BASELINE
S0006,T03,LDIAM,14.1,mm,0,BASELINE
S0006,T04,LDIAM,21.7,mm,0,BASELINE
S0006,T05,LDIAM,58.9,mm,0,BASELINE
S0006,,SUMDIAM,132.9,mm,0,BASELINE
S0006,T01,LDIAM,21.8,mm,56,TA1
S0006,T02,LDIAM,19.8,mm,56,TA1
S0006,T03,LDIAM,15.4,mm,56,TA1
S0006,T04,LDIAM,23.6,mm,56,TA1
S0006,T05,LDIAM,64.2,mm,56,TA1
S0006,,SUMDIAM,144.7,mm,56,TA1
S0006,T01,LDIAM,23.6,mm,112,TA2
S0006,T02,LDIAM,21.4,mm,112,TA2
S0006,T03,LDIAM,16.6,mm,112,TA2
S0006,T04,LDIAM,25.6,mm,112,TA2
S0006,T05,LDIAM,69.4,mm,112,TA2
S0006,,SUMDIAM,156.6,mm,112,TA2
S0006,T01,LDIAM,23.6,mm,168,TA3
S0006,T02,LDIAM,21.4,mm,168,TA3
S0006,T03,LDIAM,16.6,mm,168,TA3
S0006,T04,LDIAM,25.6,mm,168,TA3
S0006,T05,LDIAM,69.4,mm,168,TA3
S0006,,SUMDIAM,156.6,mm,168,TA3
S0006,T01,LDIAM,23.6,mm,224,TA4
S0006,T02,LDIAM,21.4,mm,224,TA4
S0006,T03,LDIAM,16.6,mm,224,TA4
S0006,T04,LDIAM,25.6,mm,224,TA4
S0006,T05,LDIAM,69.4,mm,224,TA4
S0006,,SUMDIAM,156.6,mm,224,TA4
S0006,T01,LDIAM,23.6,mm,280,TA5
S0006,T02,LDIAM,21.4,mm,280,TA5
S0006,T03,LDIAM,16.6,mm,280,TA5
S0006,T04,LDIAM,25.6,mm,280,TA5
S0006,T05,LDIAM,69.4,mm,280,TA5
S0006,,SUMDIAM,156.6,mm,280,TA5
S0006,T01,LDIAM,23.6,mm,336,TA6
S0006,T02,LDIAM,21.4,mm,336,TA6
S0006,T03,LDIAM,16.6,mm,336,TA6
S0006,T04,LDIAM,25.6,mm,336,TA6
S0006,T05,LDIAM,69.4,mm,336,TA6
S0006,,SUMDIAM,156.6,mm,336,TA6
S0006,T01,LDIAM,23.6,mm,392,TA7
S0006,T02,LDIAM,21.4,mm,392,TA7
S0006,T03,LDIAM,16.6,mm,392,TA7
S0006,T04,LDIAM,25.6,mm,392,TA7
S0006,T05,LDIAM,69.4,mm,392,TA7
S0006,,SUMDIAM,156.6,mm,392,TA7
S0006,T01,LDIAM,23.6,mm,448,TA8
S0006,T02,LDIAM,21.4,mm,448,TA8
S0006,T03,LDIAM,16.6,mm,448,TA8
S0006,T04,LDIAM,25.6,mm,448,TA8
S0006,T05,LDIAM,69.4,mm,448,TA8
S0006,,SUMDIAM,156.6,mm,448,TA8
S0006,T01,LDIAM,23.6,mm,504,TA9
S0006,T02,LDIAM,21.4,mm,504,TA9
S0006,T03,LDIAM,16.6,mm,504,TA9
S0006,T04,LDIAM,25.6,mm,504,TA9
S0006,T05,LDIAM,69.4,mm,504,TA9
S0006,,SUMDIAM,156.6,mm,504,TA9
S0006,T01,LDIAM,23.6,mm,560,TA10
S0006,T02,LDIAM,21.4,mm,560,TA10
S0006,T03,LDIAM,16.6,mm,560,TA10
S0006,T04,LDIAM,25.6,mm,560,TA10
S0006,T05,LDIAM,69.4,mm,560,TA10
S0006,,SUMDIAM,156.6,mm,560,TA10
S0006,T01,LDIAM,23.6,mm,616,TA11
S0006,T02,LDIAM,21.4,mm,616,TA11
S0006,T03,LDIAM,16.6,mm,616,TA11
S0006,T04,LDIAM,25.6,mm,616,TA11
S0006,T05,LDIAM,69.4,mm,616,TA11
S0006,,SUMDIAM,156.6,mm,616,TA11
S0006,T01,LDIAM,23.6,mm,672,TA12
S0006,T02,LDIAM,21.4,mm,672,TA12
S0006,T03,LDIAM,16.6,mm,672,TA12
S0006,T04,LDIAM,25.6,mm,672,TA12
S0006,T05,LDIAM,69.4,mm,672,TA12
S0006,,SUMDIAM,156.6,mm,672,TA12
S0006,T01,LDIAM,23.6,mm,728,TA13
S0006,T02,LDIAM,21.4,mm,728,TA13
S0006,T03,LDIAM,16.6,mm,728,TA13
S0006,T04,LDIAM,25.6,mm,728,TA13
S0006,T05,LDIAM,69.4,mm,728,TA13
S0006,,SUMDIAM,156.6,mm,728,TA13
S0006,T01,LDIAM,23.6,mm,784,TA14
S0006,T02,LDIAM,21.4,mm,784,TA14
S0006,T03,LDIAM,16.6,mm,784,TA14
S0006,T04,LDIAM,25.6,mm,784,TA14
S0006,T05,LDIAM,69.4,mm,784,TA14
S0006,,SUMDIAM,156.6,mm,784,TA14
S0006,T01,LDIAM,23.6,mm,840,TA15
S0006,T02,LDIAM,21.4,mm,840,TA15
S0006,T03,LDIAM,16.6,mm,840,TA15
S0006,T04,LDIAM,25.6,mm,840,TA15
S0006,T05,LDIAM,69.4,mm,840,TA15
S0006,,SUMDIAM,156.6,mm,840,TA15
S0006,T01,LDIAM,25.0,mm,896,TA16
S0006,T02,LDIAM,22.8,mm,896,TA16
S0006,T03,LDIAM,17.6,mm,896,TA16
S0006,T04,LDIAM,27.1,mm,896,TA16
S0006,T05,LDIAM,73.6,mm,896,TA16
S0006,,SUMDIAM,166.1,mm,896,TA16
S0007,T01,LDIAM,25.2,mm,0,BASELINE
S0007,T02,LDIAM,18.7,mm,0,BASELINE
S0007,,SUMDIAM,43.9,mm,0,BASELINE
S0007,T01,LDIAM,15.6,mm,56,TA1
S0007,T02,LDIAM,11.5,mm,56,TA1
S0007,,SUMDIAM,27.1,mm,56,TA1
S0008,T01,LDIAM,47.6,mm,0,BASELINE
S0008,T02,LDIAM,45.3,mm,0,BASELINE
S0008,T03,LDIAM,42.6,mm,0,BASELINE
S0008,,SUMDIAM,135.5,mm,0,BASELINE
S0008,T01,LDIAM,23.8,mm,56,TA1
S0008,T02,LDIAM,22.6,mm,56,TA1
S0008,T03,LDIAM,21.3,mm,56,TA1
S0008,,SUMDIAM,67.8,mm,56,TA1
S0009,T01,LDIAM,45.9,mm,0,BASELINE
S0009,T02,LDIAM,26.9,mm,0,BASELINE
S0009,,SUMDIAM,72.8,mm,0,BASELINE
S0010,T01,LDIAM,10.2,mm,0,BASELINE
S0010,,SUMDIAM,10.2,mm,0,BASELINE
S0010,T01,LDIAM,8.3,mm,56,TA1
S0010,,SUMDIAM,8.3,mm,56,TA1
S0011,T01,LDIAM,21.9,mm,0,BASELINE
S0011,T02,LDIAM,12.2,mm,0,BASELINE
S0011,T03,LDIAM,49.6,mm,0,BASELINE
S0011,,SUMDIAM,83.7,mm,0,BASELINE
S0011,T01,LDIAM,13.7,mm,56,TA1
S0011,T02,LDIAM,7.6,mm,56,TA1
S0011,T03,LDIAM,31.1,mm,56,TA1
S0011,,SUMDIAM,52.4,mm,56,TA1
S0011,T01,LDIAM,5.5,mm,112,TA2
S0011,T02,LDIAM,3.1,mm,112,TA2
S0011,T03,LDIAM,12.5,mm,112,TA2
S0011,,SUMDIAM,21.2,mm,112,TA2
S0011,T01,LDIAM,5.5,mm,168,TA3
S0011,T02,LDIAM,3.1,mm,168,TA3
S0011,T03,LDIAM,12.5,mm,168,TA3
S0011,,SUMDIAM,21.2,mm,168,TA3
S0011,T01,LDIAM,5.5,mm,224,TA4
S0011,T02,LDIAM,3.1,mm,224,TA4
S0011,T03,LDIAM,12.5,mm,224,TA4
S0011,,SUMDIAM,21.2,mm,224,TA4
S0011,T01,LDIAM,5.5,mm,280,TA5
S0011,T02,LDIAM,3.1,mm,280,TA5
S0011,T03,LDIAM,12.5,mm,280,TA5
S0011,,SUMDIAM,21.2,mm,280,TA5
S0011,T01,LDIAM,5.5,mm,336,TA6
S0011,T02,LDIAM,3.1,mm,336,TA6
S0011,T03,LDIAM,12.5,mm,336,TA6
S0011,,SUMDIAM,21.2,mm,336,TA6
S0011,T01,LDIAM,5.5,mm,392,TA7
S0011,T02,LDIAM,3.1,mm,392,TA7
S0011,T03,LDIAM,12.5,mm,392,TA7
S0011,,SUMDIAM,21.2,mm,392,TA7
S0011,T01,LDIAM,5.5,mm,448,TA8
S0011,T02,LDIAM,3.1,mm,448,TA8
S0011,T03,LDIAM,12.5,mm,448,TA8
S0011,,SUMDIAM,21.2,mm,448,TA8
S0011,T01,LDIAM,5.5,mm,504,TA9
S0011,T02,LDIAM,3.1,mm,504,TA9
S0011,T03,LDIAM,12.5,mm,504,TA9
S0011,,SUMDIAM,21.2,mm,504,TA9
S0011,T01,LDIAM,5.5,mm,560,TA10
S0011,T02,LDIAM,3.1,mm,560,TA10
S0011,T03,LDIAM,12.5,mm,560,TA10
S0011,,SUMDIAM,21.2,mm,560,TA10
S0012,T01,LDIAM,58.5,mm,0,BASELINE
S0012,T02,LDIAM,51.4,mm,0,BASELINE
S0012,T03,LDIAM,10.5,mm,0,BASELINE
S0012,T04,LDIAM,59.6,mm,0,BASELINE
S0012,,SUMDIAM,180.0,mm,0,BASELINE
S0012,T01,LDIAM,41.0,mm,56,TA1
S0012,T02,LDIAM,36.0,mm,56,TA1
S0012,T03,LDIAM,7.4,mm,56,TA1
S0012,T04,LDIAM,41.8,mm,56,TA1
S0012,,SUMDIAM,126.1,mm,56,TA1
S0012,T01,LDIAM,23.5,mm,112,TA2
S0012,T02,LDIAM,20.6,mm,112,TA2
S0012,T03,LDIAM,4.2,mm,112,TA2
S0012,T04,LDIAM,23.9,mm,112,TA2
S0012,,SUMDIAM,72.3,mm,112,TA2
S0012,T01,LDIAM,23.5,mm,168,TA3
S0012,T02,LDIAM,20.6,mm,168,TA3
S0012,T03,LDIAM,4.2,mm,168,TA3
S0012,T04,LDIAM,23.9,mm,168,TA3
S0012,,SUMDIAM,72.3,mm,168,TA3
S0012,T01,LDIAM,23.5,mm,224,TA4
S0012,T02,LDIAM,20.6,mm,224,TA4
S0012,T03,LDIAM,4.2,mm,224,TA4
S0012,T04,LDIAM,23.9,mm,224,TA4
S0012,,SUMDIAM,72.3,mm,224,TA4
S0012,T01,LDIAM,23.5,mm,280,TA5
S0012,T02,LDIAM,20.6,mm,280,TA5
S0012,T03,LDIAM,4.2,mm,280,TA5
S0012,T04,LDIAM,23.9,mm,280,TA5
S0012,,SUMDIAM,72.3,mm,280,TA5
S0012,T01,LDIAM,23.5,mm,336,TA6
S0012,T02,LDIAM,20.6,mm,336,TA6
S0012,T03,LDIAM,4.2,mm,336,TA6
S0012,T04,LDIAM,23.9,mm,336,TA6
S0012,,SUMDIAM,72.3,mm,336,TA6
S0012,T01,LDIAM,23.5,mm,392,TA7
S0012,T02,LDIAM,20.6,mm,392,TA7
S0012,T03,LDIAM,4.2,mm,392,TA7
S0012,T04,LDIAM,23.9,mm,392,TA7
S0012,,SUMDIAM,72.3,mm,392,TA7
S0012,T01,LDIAM,23.5,mm,448,TA8
S0012,T02,LDIAM,20.6,mm,448,TA8
S0012,T03,LDIAM,4.2,mm,448,TA8
S0012,T04,LDIAM,23.9,mm,448,TA8
S0012,,SUMDIAM,72.3,mm,448,TA8
S0012,T01,LDIAM,23.5,mm,504,TA9
S0012,T02,LDIAM,20.6,mm,504,TA9
S0012,T03,LDIAM,4.2,mm,504,TA9
S0012,T04,LDIAM,23.9,mm,504,TA9
S0012,,SUMDIAM,72.3,mm,504,TA9
S0012,T01,LDIAM,23.5,mm,560,TA10
S0012,T02,LDIAM,20.6,mm,560,TA10
S0012,T03,LDIAM,4.2,mm,560,TA10
S0012,T04,LDIAM,23.9,mm,560,TA10
S0012,,SUMDIAM,72.3,mm,560,TA10
S0013,T01,LDIAM,22.8,mm,0,BASELINE
S0013,T02,LDIAM,29.0,mm,0,BASELINE
S0013,T03,LDIAM,51.6,mm,0,BASELINE
S0013,T04,LDIAM,24.3,mm,0,BASELINE
S0013,,SUMDIAM,127.7,mm,0,BASELINE
S0013,T01,LDIAM,12.5,mm,56,TA1
S0013,T02,LDIAM,15.9,mm,56,TA1
S0013,T03,LDIAM,28.2,mm,56,TA1
S0013,T04,LDIAM,13.3,mm,56,TA1
S0013,,SUMDIAM,69.8,mm,56,TA1
S0013,T01,LDIAM,2.1,mm,112,TA2
S0013,T02,LDIAM,2.7,mm,112,TA2
S0013,T03,LDIAM,4.8,mm,112,TA2
S0013,T04,LDIAM,2.3,mm,112,TA2
S0013,,SUMDIAM,12.0,mm,112,TA2
S0013,T01,LDIAM,2.1,mm,168,TA3
S0013,T02,LDIAM,2.7,mm,168,TA3
S0013,T03,LDIAM,4.8,mm,168,TA3
S0013,T04,LDIAM,2.3,mm,168,TA3
S0013,,SUMDIAM,12.0,mm,168,TA3
S0013,T01,LDIAM,2.1,mm,224,TA4
S0013,T02,LDIAM,2.7,mm,224,TA4
S0013,T03,LDIAM,4.8,mm,224,TA4
S0013,T04,LDIAM,2.3,mm,224,TA4
S0013,,SUMDIAM,12.0,mm,224,TA4
S0013,T01,LDIAM,3.7,mm,280,TA5
S0013,T02,LDIAM,4.7,mm,280,TA5
S0013,T03,LDIAM,8.4,mm,280,TA5
S0013,T04,LDIAM,4.0,mm,280,TA5
S0013,,SUMDIAM,20.8,mm,280,TA5
S0013,T01,LDIAM,3.7,mm,336,TA6
S0013,T02,LDIAM,4.7,mm,336,TA6
S0013,T03,LDIAM,8.4,mm,336,TA6
S0013,T04,LDIAM,4.0,mm,336,TA6
S0013,,SUMDIAM,20.8,mm,336,TA6
S0013,T01,LDIAM,3.7,mm,392,TA7
S0013,T02,LDIAM,4.7,mm,392,TA7
S0013,T03,LDIAM,8.4,mm,392,TA7
S0013,T04,LDIAM,4.0,mm,392,TA7
S0013,,SUMDIAM,20.8,mm,392,TA7
S0013,T01,LDIAM,3.7,mm,448,TA8
S0013,T02,LDIAM,4.7,mm,448,TA8
S0013,T03,LDIAM,8.4,mm,448,TA8
S0013,T04,LDIAM,4.0,mm,448,TA8
S0013,,SUMDIAM,20.8,mm,448,TA8
S0013,T01,LDIAM,3.7,mm,504,TA9
S0013,T02,LDIAM,4.7,mm,504,TA9
S0013,T03,LDIAM,8.4,mm,504,TA9
S0013,T04,LDIAM,4.0,mm,504,TA9
S0013,,SUMDIAM,20.8,mm,504,TA9
S0013,T01,LDIAM,3.7,mm,560,TA10
S0013,T02,LDIAM,4.7,mm,560,TA10
S0013,T03,LDIAM,8.4,mm,560,TA10
S0013,T04,LDIAM,4.0,mm,560,TA10
S0013,,SUMDIAM,20.8,mm,560,TA10
S0013,T01,LDIAM,3.7,mm,616,TA11
S0013,T02,LDIAM,4.7,mm,616,TA11
S0013,T03,LDIAM,8.4,mm,616,TA11
S0013,T04,LDIAM,4.0,mm,616,TA11
S0013,,SUMDIAM,20.8,mm,616,TA11
S0013,T01,LDIAM,3.7,mm,672,TA12
S0013,T02,LDIAM,4.7,mm,672,TA12
S0013,T03,LDIAM,8.4,mm,672,TA12
S0013,T04,LDIAM,4.0,mm,672,TA12
S0013,,SUMDIAM,20.8,mm,672,TA12
S0013,T01,LDIAM,3.7,mm,728,TA13
S0013,T02,LDIAM,4.7,mm,728,TA13
S0013,T03,LDIAM,8.4,mm,728,TA13
S0013,T04,LDIAM,4.0,mm,728,TA13
S0013,,SUMDIAM,20.8,mm,728,TA13
S0014,T01,LDIAM,56.7,mm,0,BASELINE
S0014,T02,LDIAM,27.2,mm,0,BASELINE
S0014,,SUMDIAM,83.9,mm,0,BASELINE
S0014,T01,LDIAM,44.3,mm,56,TA1
S0014,T02,LDIAM,21.2,mm,56,TA1
S0014,,SUMDIAM,65.5,mm,56,TA1
S0014,T01,LDIAM,31.9,mm,112,TA2
S0014,T02,LDIAM,15.3,mm,112,TA2
S0014,,SUMDIAM,47.1,mm,112,TA2
S0014,T01,LDIAM,41.0,mm,168,TA3
S0014,T02,LDIAM,19.7,mm,168,TA3
S0014,,SUMDIAM,60.7,mm,168,TA3
S0015,T01,LDIAM,41.1,mm,0,BASELINE
S0015,T02,LDIAM,32.6,mm,0,BASELINE
S0015,T03,LDIAM,13.0,mm,0,BASELINE
S0015,T04,LDIAM,57.5,mm,0,BASELINE
S0015,,SUMDIAM,144.2,mm,0,BASELINE
S0015,T01,LDIAM,31.1,mm,56,TA1
S0015,T02,LDIAM,24.6,mm,56,TA1
S0015,T03,LDIAM,9.8,mm,56,TA1
S0015,T04,LDIAM,43.4,mm,56,TA1
S0015,,SUMDIAM,108.9,mm,56,TA1
S0015,T01,LDIAM,39.3,mm,112,TA2
S0015,T02,LDIAM,31.2,mm,112,TA2
S0015,T03,LDIAM,12.4,mm,112,TA2
S0015,T04,LDIAM,55.0,mm,112,TA2
S0015,,SUMDIAM,137.9,mm,112,TA2
S0016,T01,LDIAM,48.2,mm,0,BASELINE
S0016,T02,LDIAM,53.5,mm,0,BASELINE
S0016,T03,LDIAM,23.1,mm,0,BASELINE
S0016,T04,LDIAM,21.5,mm,0,BASELINE
S0016,T05,LDIAM,15.0,mm,0,BASELINE
S0016,,SUMDIAM,161.3,mm,0,BASELINE
S0016,T01,LDIAM,41.0,mm,56,TA1
S0016,T02,LDIAM,45.5,mm,56,TA1
S0016,T03,LDIAM,19.6,mm,56,TA1
S0016,T04,LDIAM,18.3,mm,56,TA1
S0016,T05,LDIAM,12.7,mm,56,TA1
S0016,,SUMDIAM,137.1,mm,56,TA1
S0016,T01,LDIAM,33.7,mm,112,TA2
S0016,T02,LDIAM,37.4,mm,112,TA2
S0016,T03,LDIAM,16.2,mm,112,TA2
S0016,T04,LDIAM,15.0,mm,112,TA2
S0016,T05,LDIAM,10.5,mm,112,TA2
S0016,,SUMDIAM,112.9,mm,112,TA2
S0016,T01,LDIAM,33.7,mm,168,TA3
S0016,T02,LDIAM,37.4,mm,168,TA3
S0016,T03,LDIAM,16.2,mm,168,TA3
S0016,T04,LDIAM,15.0,mm,168,TA3
S0016,T05,LDIAM,10.5,mm,168,TA3
S0016,,SUMDIAM,112.9,mm,168,TA3
S0016,T01,LDIAM,33.7,mm,224,TA4
S0016,T02,LDIAM,37.4,mm,224,TA4
S0016,T03,LDIAM,16.2,mm,224,TA4
S0016,T04,LDIAM,15.0,mm,224,TA4
S0016,T05,LDIAM,10.5,mm,224,TA4
S0016,,SUMDIAM,112.9,mm,224,TA4
S0016,T01,LDIAM,33.7,mm,280,TA5
S0016,T02,LDIAM,37.4,mm,280,TA5
S0016,T03,LDIAM,16.2,mm,280,TA5
S0016,T04,LDIAM,15.0,mm,280,TA5
S0016,T05,LDIAM,10.5,mm,280,TA5
S0016,,SUMDIAM,112.9,mm,280,TA5
S0016,T01,LDIAM,42.9,mm,336,TA6
S0016,T02,LDIAM,47.6,mm,336,TA6
S0016,T03,LDIAM,20.6,mm,336,TA6
S0016,T04,LDIAM,19.1,mm,336,TA6
S0016,T05,LDIAM,13.3,mm,336,TA6
S0016,,SUMDIAM,143.5,mm,336,TA6
S0017,T01,LDIAM,48.9,mm,0,BASELINE
S0017,T02,LDIAM,10.8,mm,0,BASELINE
S0017,T03,LDIAM,46.6,mm,0,BASELINE
S0017,T04,LDIAM,51.4,mm,0,BASELINE
S0017,,SUMDIAM,157.7,mm,0,BASELINE
S0017,T01,LDIAM,42.6,mm,56,TA1
S0017,T02,LDIAM,9.4,mm,56,TA1
S0017,T03,LDIAM,40.6,mm,56,TA1
S0017,T04,LDIAM,44.7,mm,56,TA1
S0017,,SUMDIAM,137.3,mm,56,TA1
S0017,T01,LDIAM,36.2,mm,112,TA2
S0017,T02,LDIAM,8.0,mm,112,TA2
S0017,T03,LDIAM,34.5,mm,112,TA2
S0017,T04,LDIAM,38.1,mm,112,TA2
S0017,,SUMDIAM,116.8,mm,112,TA2
S0017,T01,LDIAM,36.2,mm,168,TA3
S0017,T02,LDIAM,8.0,mm,168,TA3
S0017,T03,LDIAM,34.5,mm,168,TA3
S0017,T04,LDIAM,38.1,mm,168,TA3
S0017,,SUMDIAM,116.8,mm,168,TA3
S0017,T01,LDIAM,36.2,mm,224,TA4
S0017,T02,LDIAM,8.0,mm,224,TA4
S0017,T03,LDIAM,34.5,mm,224,TA4
S0017,T04,LDIAM,38.1,mm,224,TA4
S0017,,SUMDIAM,116.8,mm,224,TA4
S0017,T01,LDIAM,36.2,mm,280,TA5
S0017,T02,LDIAM,8.0,mm,280,TA5
S0017,T03,LDIAM,34.5,mm,280,TA5
S0017,T04,LDIAM,38.1,mm,280,TA5
S0017,,SUMDIAM,116.8,mm,280,TA5
S0017,T01,LDIAM,36.2,mm,336,TA6
S0017,T02,LDIAM,8.0,mm,336,TA6
S0017,T03,LDIAM,34.5,mm,336,TA6
S0017,T04,LDIAM,38.1,mm,336,TA6
S0017,,SUMDIAM,116.8,mm,336,TA6
S0017,T01,LDIAM,36.2,mm,392,TA7
S0017,T02,LDIAM,8.0,mm,392,TA7
S0017,T03,LDIAM,34.5,mm,392,TA7
S0017,T04,LDIAM,38.1,mm,392,TA7
S0017,,SUMDIAM,116.8,mm,392,TA7
S0017,T01,LDIAM,36.2,mm,448,TA8
S0017,T02,LDIAM,8.0,mm,448,TA8
S0017,T03,LDIAM,34.5,mm,448,TA8
S0017,T04,LDIAM,38.1,mm,448,TA8
S0017,,SUMDIAM,116.8,mm,448,TA8
S0018,T01,LDIAM,12.5,mm,0,BASELINE
S0018,T02,LDIAM,59.8,mm,0,BASELINE
S0018,,SUMDIAM,72.3,mm,0,BASELINE
S0018,T01,LDIAM,13.4,mm,56,TA1
S0018,T02,LDIAM,64.2,mm,56,TA1
S0018,,SUMDIAM,77.6,mm,56,TA1
S0018,T01,LDIAM,14.3,mm,112,TA2
S0018,T02,LDIAM,68.6,mm,112,TA2
S0018,,SUMDIAM,82.9,mm,112,TA2
S0018,T01,LDIAM,14.3,mm,168,TA3
S0018,T02,LDIAM,68.6,mm,168,TA3
S0018,,SUMDIAM,82.9,mm,168,TA3
S0018,T01,LDIAM,14.3,mm,224,TA4
S0018,T02,LDIAM,68.6,mm,224,TA4
S0018,,SUMDIAM,82.9,mm,224,TA4
S0018,T01,LDIAM,14.3,mm,280,TA5
S0018,T02,LDIAM,68.6,mm,280,TA5
S0018,,SUMDIAM,82.9,mm,280,TA5
S0018,T01,LDIAM,14.3,mm,336,TA6
S0018,T02,LDIAM,68.6,mm,336,TA6
S0018,,SUMDIAM,82.9,mm,336,TA6
S0018,T01,LDIAM,14.3,mm,392,TA7
S0018,T02,LDIAM,68.6,mm,392,TA7
S0018,,SUMDIAM,82.9,mm,392,TA7
S0018,T01,LDIAM,14.3,mm,448,TA8
S0018,T02,LDIAM,68.6,mm,448,TA8
S0018,,SUMDIAM,82.9,mm,448,TA8
S0018,T01,LDIAM,14.3,mm,504,TA9
S0018,T02,LDIAM,68.6,mm,504,TA9
S0018,,SUMDIAM,82.9,mm,504,TA9
S0018,T01,LDIAM,14.3,mm,560,TA10
S0018,T02,LDIAM,68.6,mm,560,TA10
S0018,,SUMDIAM,82.9,mm,560,TA10
S0018,T01,LDIAM,14.3,mm,616,TA11
S0018,T02,LDIAM,68.6,mm,616,TA11
S0018,,SUMDIAM,82.9,mm,616,TA11
S0018,T01,LDIAM,14.3,mm,672,TA12
S0018,T02,LDIAM,68.6,mm,672,TA12
S0018,,SUMDIAM,82.9,mm,672,TA12
S0018,T01,LDIAM,14.3,mm,728,TA13
S0018,T02,LDIAM,68.6,mm,728,TA13
S0018,,SUMDIAM,82.9,mm,728,TA13
S0018,T01,LDIAM,14.3,mm,784,TA14
S0018,T02,LDIAM,68.6,mm,784,TA14
S0018,,SUMDIAM,82.9,mm,784,TA14
S0018,T01,LDIAM,14.3,mm,840,TA15
S0018,T02,LDIAM,68.6,mm,840,TA15
S0018,,SUMDIAM,82.9,mm,840,TA15
S0018,T01,LDIAM,14.3,mm,896,TA16
S0018,T02,LDIAM,68.6,mm,896,TA16
S0018,,SUMDIAM,82.9,mm,896,TA16
S0018,T01,LDIAM,14.3,mm,952,TA17
S0018,T02,LDIAM,68.6,mm,952,TA17
S0018,,SUMDIAM,82.9,mm,952,TA17
S0018,T01,LDIAM,14.3,mm,1008,TA18
S0018,T02,LDIAM,68.6,mm,1008,TA18
S0018,,SUMDIAM,82.9,mm,1008,TA18
S0018,T01,LDIAM,14.3,mm,1064,TA19
S0018,T02,LDIAM,68.6,mm,1064,TA19
S0018,,SUMDIAM,82.9,mm,1064,TA19
S0018,T01,LDIAM,14.3,mm,1120,TA20
S0018,T02,LDIAM,68.6,mm,1120,TA20
S0018,,SUMDIAM,82.9,mm,1120,TA20
S0018,T01,LDIAM,14.3,mm,1176,TA21
S0018,T02,LDIAM,68.6,mm,1176,TA21
S0018,,SUMDIAM,82.9,mm,1176,TA21
S0018,T01,LDIAM,14.3,mm,1232,TA22
S0018,T02,LDIAM,68.6,mm,1232,TA22
S0018,,SUMDIAM,82.9,mm,1232,TA22
S0018,T01,LDIAM,14.3,mm,1288,TA23
S0018,T02,LDIAM,68.6,mm,1288,TA23
S0018,,SUMDIAM,82.9,mm,1288,TA23
S0018,T01,LDIAM,14.3,mm,1344,TA24
S0018,T02,LDIAM,68.6,mm,1344,TA24
S0018,,SUMDIAM,82.9,mm,1344,TA24
S0018,T01,LDIAM,14.3,mm,1400,TA25
S0018,T02,LDIAM,68.6,mm,1400,TA25
S0018,,SUMDIAM,82.9,mm,1400,TA25
S0018,T01,LDIAM,14.3,mm,1456,TA26
S0018,T02,LDIAM,68.6,mm,1456,TA26
S0018,,SUMDIAM,82.9,mm,1456,TA26
S0018,T01,LDIAM,14.3,mm,1512,TA27
S0018,T02,LDIAM,68.6,mm,1512,TA27
S0018,,SUMDIAM,82.9,mm,1512,TA27
S0018,T01,LDIAM,14.3,mm,1568,TA28
S0018,T02,LDIAM,68.6,mm,1568,TA28
S0018,,SUMDIAM,82.9,mm,1568,TA28
S0018,T01,LDIAM,14.3,mm,1624,TA29
S0018,T02,LDIAM,68.6,mm,1624,TA29
S0018,,SUMDIAM,82.9,mm,1624,TA29
S0018,T01,LDIAM,15.6,mm,1680,TA30
S0018,T02,LDIAM,74.8,mm,1680,TA30
S0018,,SUMDIAM,90.4,mm,1680,TA30
S0019,T01,LDIAM,58.8,mm,0,BASELINE
S0019,T02,LDIAM,42.2,mm,0,BASELINE
S0019,T03,LDIAM,14.6,mm,0,BASELINE
S0019,T04,LDIAM,42.7,mm,0,BASELINE
S0019,T05,LDIAM,23.6,mm,0,BASELINE
S0019,,SUMDIAM,181.9,mm,0,BASELINE
S0019,T01,LDIAM,60.7,mm,56,TA1
S0019,T02,LDIAM,43.6,mm,56,TA1
S0019,T03,LDIAM,15.1,mm,56,TA1
S0019,T04,LDIAM,44.1,mm,56,TA1
S0019,T05,LDIAM,24.4,mm,56,TA1
S0019,,SUMDIAM,187.8,mm,56,TA1
S0019,T01,LDIAM,62.6,mm,112,TA2
S0019,T02,LDIAM,44.9,mm,112,TA2
S0019,T03,LDIAM,15.5,mm,112,TA2
S0019,T04,LDIAM,45.5,mm,112,TA2
S0019,T05,LDIAM,25.1,mm,112,TA2
S0019,,SUMDIAM,193.7,mm,112,TA2
S0019,T01,LDIAM,62.6,mm,168,TA3
S0019,T02,LDIAM,44.9,mm,168,TA3
S0019,T03,LDIAM,15.5,mm,168,TA3
S0019,T04,LDIAM,45.5,mm,168,TA3
S0019,T05,LDIAM,25.1,mm,168,TA3
S0019,,SUMDIAM,193.7,mm,168,TA3
S0019,T01,LDIAM,62.6,mm,224,TA4
S0019,T02,LDIAM,44.9,mm,224,TA4
S0019,T03,LDIAM,15.5,mm,224,TA4
S0019,T04,LDIAM,45.5,mm,224,TA4
S0019,T05,LDIAM,25.1,mm,224,TA4
S0019,,SUMDIAM,193.7,mm,224,TA4
S0019,T01,LDIAM,62.6,mm,280,TA5
S0019,T02,LDIAM,44.9,mm,280,TA5
S0019,T03,LDIAM,15.5,mm,280,TA5
S0019,T04,LDIAM,45.5,mm,280,TA5
S0019,T05,LDIAM,25.1,mm,280,TA5
S0019,,SUMDIAM,193.7,mm,280,TA5
S0019,T01,LDIAM,62.6,mm,336,TA6
S0019,T02,LDIAM,44.9,mm,336,TA6
S0019,T03,LDIAM,15.5,mm,336,TA6
S0019,T04,LDIAM,45.5,mm,336,TA6
S0019,T05,LDIAM,25.1,mm,336,TA6
S0019,,SUMDIAM,193.7,mm,336,TA6
S0019,T01,LDIAM,62.6,mm,392,TA7
S0019,T02,LDIAM,44.9,mm,392,TA7
S0019,T03,LDIAM,15.5,mm,392,TA7
S0019,T04,LDIAM,45.5,mm,392,TA7
S0019,T05,LDIAM,25.1,mm,392,TA7
S0019,,SUMDIAM,193.7,mm,392,TA7
S0019,T01,LDIAM,62.6,mm,448,TA8
S0019,T02,LDIAM,44.9,mm,448,TA8
S0019,T03,LDIAM,15.5,mm,448,TA8
S0019,T04,LDIAM,45.5,mm,448,TA8
S0019,T05,LDIAM,25.1,mm,448,TA8
S0019,,SUMDIAM,193.7,mm,448,TA8
S0019,T01,LDIAM,62.6,mm,504,TA9
S0019,T02,LDIAM,44.9,mm,504,TA9
S0019,T03,LDIAM,15.5,mm,504,TA9
S0019,T04,LDIAM,45.5,mm,504,TA9
S0019,T05,LDIAM,25.1,mm,504,TA9
S0019,,SUMDIAM,193.7,mm,504,TA9
S0019,T01,LDIAM,62.6,mm,560,TA10
S0019,T02,LDIAM,44.9,mm,560,TA10
S0019,T03,LDIAM,15.5,mm,560,TA10
S0019,T04,LDIAM,45.5,mm,560,TA10
S0019,T05,LDIAM,25.1,mm,560,TA10
S0019,,SUMDIAM,193.7,mm,560,TA10
S0019,T01,LDIAM,62.6,mm,616,TA11
S0019,T02,LDIAM,44.9,mm,616,TA11
S0019,T03,LDIAM,15.5,mm,616,TA11
S0019,T04,LDIAM,45.5,mm,616,TA11
S0019,T05,LDIAM,25.1,mm,616,TA11
S0019,,SUMDIAM,193.7,mm,616,TA11
S0019,T01,LDIAM,62.6,mm,672,TA12
S0019,T02,LDIAM,44.9,mm,672,TA12
S0019,T03,LDIAM,15.5,mm,672,TA12
S0019,T04,LDIAM,45.5,mm,672,TA12
S0019,T05,LDIAM,25.1,mm,672,TA12
S0019,,SUMDIAM,193.7,mm,672,TA12
S0019,T01,LDIAM,62.6,mm,728,TA13
S0019,T02,LDIAM,44.9,mm,728,TA13
S0019,T03,LDIAM,15.5,mm,728,TA13
S0019,T04,LDIAM,45.5,mm,728,TA13
S0019,T05,LDIAM,25.1,mm,728,TA13
S0019,,SUMDIAM,193.7,mm,728,TA13
S0019,T01,LDIAM,73.5,mm,784,TA14
S0019,T02,LDIAM,52.8,mm,784,TA14
S0019,T03,LDIAM,18.2,mm,784,TA14
S0019,T04,LDIAM,53.4,mm,784,TA14
S0019,T05,LDIAM,29.5,mm,784,TA14
S0019,,SUMDIAM,227.4,mm,784,TA14
S0020,T01,LDIAM,16.5,mm,0,BASELINE
S0020,,SUMDIAM,16.5,mm,0,BASELINE
S0020,T01,LDIAM,9.1,mm,56,TA1
S0020,,SUMDIAM,9.1,mm,56,TA1
S0021,T01,LDIAM,27.8,mm,0,BASELINE
S0021,T02,LDIAM,42.8,mm,0,BASELINE
S0021,T03,LDIAM,14.0,mm,0,BASELINE
S0021,,SUMDIAM,84.6,mm,0,BASELINE
S0021,T01,LDIAM,28.2,mm,56,TA1
S0021,T02,LDIAM,43.3,mm,56,TA1
S0021,T03,LDIAM,14.2,mm,56,TA1
S0021,,SUMDIAM,85.7,mm,56,TA1
S0021,T01,LDIAM,28.5,mm,112,TA2
S0021,T02,LDIAM,43.9,mm,112,TA2
S0021,T03,LDIAM,14.4,mm,112,TA2
S0021,,SUMDIAM,86.7,mm,112,TA2
S0021,T01,LDIAM,28.5,mm,168,TA3
S0021,T02,LDIAM,43.9,mm,168,TA3
S0021,T03,LDIAM,14.4,mm,168,TA3
S0021,,SUMDIAM,86.7,mm,168,TA3
S0021,T01,LDIAM,28.5,mm,224,TA4
S0021,T02,LDIAM,43.9,mm,224,TA4
S0021,T03,LDIAM,14.4,mm,224,TA4
S0021,,SUMDIAM,86.7,mm,224,TA4
S0021,T01,LDIAM,28.5,mm,280,TA5
S0021,T02,LDIAM,43.9,mm,280,TA5
S0021,T03,LDIAM,14.4,mm,280,TA5
S0021,,SUMDIAM,86.7,mm,280,TA5
S0021,T01,LDIAM,28.5,mm,336,TA6
S0021,T02,LDIAM,43.9,mm,336,TA6
S0021,T03,LDIAM,14.4,mm,336,TA6
S0021,,SUMDIAM,86.7,mm,336,TA6
S0021,T01,LDIAM,28.5,mm,392,TA7
S0021,T02,LDIAM,43.9,mm,392,TA7
S0021,T03,LDIAM,14.4,mm,392,TA7
S0021,,SUMDIAM,86.7,mm,392,TA7
S0021,T01,LDIAM,28.5,mm,448,TA8
S0021,T02,LDIAM,43.9,mm,448,TA8
S0021,T03,LDIAM,14.4,mm,448,TA8
S0021,,SUMDIAM,86.7,mm,448,TA8
S0021,T01,LDIAM,28.5,mm,504,TA9
S0021,T02,LDIAM,43.9,mm,504,TA9
S0021,T03,LDIAM,14.4,mm,504,TA9
S0021,,SUMDIAM,86.7,mm,504,TA9
S0021,T01,LDIAM,28.5,mm,560,TA10
S0021,T02,LDIAM,43.9,mm,560,TA10
S0021,T03,LDIAM,14.4,mm,560,TA10
S0021,,SUMDIAM,86.7,mm,560,TA10
S0021,T01,LDIAM,28.5,mm,616,TA11
S0021,T02,LDIAM,43.9,mm,616,TA11
S0021,T03,LDIAM,14.4,mm,616,TA11
S0021,,SUMDIAM,86.7,mm,616,TA11
S0021,T01,LDIAM,28.5,mm,672,TA12
S0021,T02,LDIAM,43.9,mm,672,TA12
S0021,T03,LDIAM,14.4,mm,672,TA12
S0021,,SUMDIAM,86.7,mm,672,TA12
S0021,T01,LDIAM,28.5,mm,728,TA13
S0021,T02,LDIAM,43.9,mm,728,TA13
S0021,T03,LDIAM,14.4,mm,728,TA13
S0021,,SUMDIAM,86.7,mm,728,TA13
S0021,T01,LDIAM,28.5,mm,784,TA14
S0021,T02,LDIAM,43.9,mm,784,TA14
S0021,T03,LDIAM,14.4,mm,784,TA14
S0021,,SUMDIAM,86.7,mm,784,TA14
S0021,T01,LDIAM,28.5,mm,840,TA15
S0021,T02,LDIAM,43.9,mm,840,TA15
S0021,T03,LDIAM,14.4,mm,840,TA15
S0021,,SUMDIAM,86.7,mm,840,TA15
S0021,T01,LDIAM,28.5,mm,896,TA16
S0021,T02,LDIAM,43.9,mm,896,TA16
S0021,T03,LDIAM,14.4,mm,896,TA16
S0021,,SUMDIAM,86.7,mm,896,TA16
S0021,T01,LDIAM,28.5,mm,952,TA17
S0021,T02,LDIAM,43.9,mm,952,TA17
S0021,T03,LDIAM,14.4,mm,952,TA17
S0021,,SUMDIAM,86.7,mm,952,TA17
S0021,T01,LDIAM,28.5,mm,1008,TA18
S0021,T02,LDIAM,43.9,mm,1008,TA18
S0021,T03,LDIAM,14.4,mm,1008,TA18
S0021,,SUMDIAM,86.7,mm,1008,TA18
S0021,T01,LDIAM,28.5,mm,1064,TA19
S0021,T02,LDIAM,43.9,mm,1064,TA19
S0021,T03,LDIAM,14.4,mm,1064,TA19
S0021,,SUMDIAM,86.7,mm,1064,TA19
S0021,T01,LDIAM,28.5,mm,1120,TA20
S0021,T02,LDIAM,43.9,mm,1120,TA20
S0021,T03,LDIAM,14.4,mm,1120,TA20
S0021,,SUMDIAM,86.7,mm,1120,TA20
S0021,T01,LDIAM,28.5,mm,1176,TA21
S0021,T02,LDIAM,43.9,mm,1176,TA21
S0021,T03,LDIAM,14.4,mm,1176,TA21
S0021,,SUMDIAM,86.7,mm,1176,TA21
S0021,T01,LDIAM,28.5,mm,1232,TA22
S0021,T02,LDIAM,43.9,mm,1232,TA22
S0021,T03,LDIAM,14.4,mm,1232,TA22
S0021,,SUMDIAM,86.7,mm,1232,TA22
S0021,T01,LDIAM,28.5,mm,1288,TA23
S0021,T02,LDIAM,43.9,mm,1288,TA23
S0021,T03,LDIAM,14.4,mm,1288,TA23
S0021,,SUMDIAM,86.7,mm,1288,TA23
S0021,T01,LDIAM,28.5,mm,1344,TA24
S0021,T02,LDIAM,43.9,mm,1344,TA24
S0021,T03,LDIAM,14.4,mm,1344,TA24
S0021,,SUMDIAM,86.7,mm,1344,TA24
S0021,T01,LDIAM,28.5,mm,1400,TA25
S0021,T02,LDIAM,43.9,mm,1400,TA25
S0021,T03,LDIAM,14.4,mm,1400,TA25
S0021,,SUMDIAM,86.7,mm,1400,TA25
S0021,T01,LDIAM,28.5,mm,1456,TA26
S0021,T02,LDIAM,43.9,mm,1456,TA26
S0021,T03,LDIAM,14.4,mm,1456,TA26
S0021,,SUMDIAM,86.7,mm,1456,TA26
S0022,T01,LDIAM,40.7,mm,0,BASELINE
S0022,T02,LDIAM,23.6,mm,0,BASELINE
S0022,T03,LDIAM,11.1,mm,0,BASELINE
S0022,T04,LDIAM,13.9,mm,0,BASELINE
S0022,,SUMDIAM,89.3,mm,0,BASELINE
S0022,T01,LDIAM,29.8,mm,56,TA1
S0022,T02,LDIAM,17.3,mm,56,TA1
S0022,T03,LDIAM,8.1,mm,56,TA1
S0022,T04,LDIAM,10.2,mm,56,TA1
S0022,,SUMDIAM,65.4,mm,56,TA1
S0023,T01,LDIAM,13.4,mm,0,BASELINE
S0023,T02,LDIAM,17.8,mm,0,BASELINE
S0023,T03,LDIAM,19.8,mm,0,BASELINE
S0023,T04,LDIAM,16.6,mm,0,BASELINE
S0023,,SUMDIAM,67.6,mm,0,BASELINE
S0023,T01,LDIAM,12.3,mm,56,TA1
S0023,T02,LDIAM,16.4,mm,56,TA1
S0023,T03,LDIAM,18.2,mm,56,TA1
S0023,T04,LDIAM,15.3,mm,56,TA1
S0023,,SUMDIAM,62.1,mm,56,TA1
S0023,T01,LDIAM,11.2,mm,112,TA2
S0023,T02,LDIAM,14.9,mm,112,TA2
S0023,T03,LDIAM,16.6,mm,112,TA2
S0023,T04,LDIAM,13.9,mm,112,TA2
S0023,,SUMDIAM,56.6,mm,112,TA2
S0023,T01,LDIAM,11.2,mm,168,TA3
S0023,T02,LDIAM,14.9,mm,168,TA3
S0023,T03,LDIAM,16.6,mm,168,TA3
S0023,T04,LDIAM,13.9,mm,168,TA3
S0023,,SUMDIAM,56.6,mm,168,TA3
S0023,T01,LDIAM,11.2,mm,224,TA4
S0023,T02,LDIAM,14.9,mm,224,TA4
S0023,T03,LDIAM,16.6,mm,224,TA4
S0023,T04,LDIAM,13.9,mm,224,TA4
S0023,,SUMDIAM,56.6,mm,224,TA4
S0023,T01,LDIAM,11.2,mm,280,TA5
S0023,T02,LDIAM,14.9,mm,280,TA5
S0023,T03,LDIAM,16.6,mm,280,TA5
S0023,T04,LDIAM,13.9,mm,280,TA5
S0023,,SUMDIAM,56.6,mm,280,TA5
S0023,T01,LDIAM,11.2,mm,336,TA6
S0023,T02,LDIAM,14.9,mm,336,TA6
S0023,T03,LDIAM,16.6,mm,336,TA6
S0023,T04,LDIAM,13.9,mm,336,TA6
S0023,,SUMDIAM,56.6,mm,336,TA6
S0023,T01,LDIAM,11.2,mm,392,TA7
S0023,T02,LDIAM,14.9,mm,392,TA7
S0023,T03,LDIAM,16.6,mm,392,TA7
S0023,T04,LDIAM,13.9,mm,392,TA7
S0023,,SUMDIAM,56.6,mm,392,TA7
S0023,T01,LDIAM,11.2,mm,448,TA8
S0023,T02,LDIAM,14.9,mm,448,TA8
S0023,T03,LDIAM,16.6,mm,448,TA8
S0023,T04,LDIAM,13.9,mm,448,TA8
S0023,,SUMDIAM,56.6,mm,448,TA8
S0023,T01,LDIAM,11.2,mm,504,TA9
S0023,T02,LDIAM,14.9,mm,504,TA9
S0023,T03,LDIAM,16.6,mm,504,TA9
S0023,T04,LDIAM,13.9,mm,504,TA9
S0023,,SUMDIAM,56.6,mm,504,TA9
S0023,T01,LDIAM,11.2,mm,560,TA10
S0023,T02,LDIAM,14.9,mm,560,TA10
S0023,T03,LDIAM,16.6,mm,560,TA10
S0023,T04,LDIAM,13.9,mm,560,TA10
S0023,,SUMDIAM,56.6,mm,560,TA10
S0023,T01,LDIAM,11.2,mm,616,TA11
S0023,T02,LDIAM,14.9,mm,616,TA11
S0023,T03,LDIAM,16.6,mm,616,TA11
S0023,T04,LDIAM,13.9,mm,616,TA11
S0023,,SUMDIAM,56.6,mm,616,TA11
S0023,T01,LDIAM,11.2,mm,672,TA12
S0023,T02,LDIAM,14.9,mm,672,TA12
S0023,T03,LDIAM,16.6,mm,672,TA12
S0023,T04,LDIAM,13.9,mm,672,TA12
S0023,,SUMDIAM,56.6,mm,672,TA12
S0023,T01,LDIAM,11.2,mm,728,TA13
S0023,T02,LDIAM,14.9,mm,728,TA13
S0023,T03,LDIAM,16.6,mm,728,TA13
S0023,T04,LDIAM,13.9,mm,728,TA13
S0023,,SUMDIAM,56.6,mm,728,TA13
S0023,T01,LDIAM,11.2,mm,784,TA14
S0023,T02,LDIAM,14.9,mm,784,TA14
S0023,T03,LDIAM,16.6,mm,784,TA14
S0023,T04,LDIAM,13.9,mm,784,TA14
S0023,,SUMDIAM,56.6,mm,784,TA14
S0023,T01,LDIAM,11.2,mm,840,TA15
S0023,T02,LDIAM,14.9,mm,840,TA15
S0023,T03,LDIAM,16.6,mm,840,TA15
S0023,T04,LDIAM,13.9,mm,840,TA15
S0023,,SUMDIAM,56.6,mm,840,TA15
S0023,T01,LDIAM,11.2,mm,896,TA16
S0023,T02,LDIAM,14.9,mm,896,TA16
S0023,T03,LDIAM,16.6,mm,896,TA16
S0023,T04,LDIAM,13.9,mm,896,TA16
S0023,,SUMDIAM,56.6,mm,896,TA16
S0023,T01,LDIAM,11.2,mm,952,TA17
S0023,T02,LDIAM,14.9,mm,952,TA17
S0023,T03,LDIAM,16.6,mm,952,TA17
S0023,T04,LDIAM,13.9,mm,952,TA17
S0023,,SUMDIAM,56.6,mm,952,TA17
S0023,T01,LDIAM,11.2,mm,1008,TA18
S0023,T02,LDIAM,14.9,mm,1008,TA18
S0023,T03,LDIAM,16.6,mm,1008,TA18
S0023,T04,LDIAM,13.9,mm,1008,TA18
S0023,,SUMDIAM,56.6,mm,1008,TA18
S0023,T01,LDIAM,11.2,mm,1064,TA19
S0023,T02,LDIAM,14.9,mm,1064,TA19
S0023,T03,LDIAM,16.6,mm,1064,TA19
S0023,T04,LDIAM,13.9,mm,1064,TA19
S0023,,SUMDIAM,56.6,mm,1064,TA19
S0023,T01,LDIAM,11.2,mm,1120,TA20
S0023,T02,LDIAM,14.9,mm,1120,TA20
S0023,T03,LDIAM,16.6,mm,1120,TA20
S0023,T04,LDIAM,13.9,mm,1120,TA20
S0023,,SUMDIAM,56.6,mm,1120,TA20
S0023,T01,LDIAM,11.2,mm,1176,TA21
S0023,T02,LDIAM,14.9,mm,1176,TA21
S0023,T03,LDIAM,16.6,mm,1176,TA21
S0023,T04,LDIAM,13.9,mm,1176,TA21
S0023,,SUMDIAM,56.6,mm,1176,TA21
S0023,T01,LDIAM,11.2,mm,1232,TA22
S0023,T02,LDIAM,14.9,mm,1232,TA22
S0023,T03,LDIAM,16.6,mm,1232,TA22
S0023,T04,LDIAM,13.9,mm,1232,TA22
S0023,,SUMDIAM,56.6,mm,1232,TA22
S0023,T01,LDIAM,11.2,mm,1288,TA23
S0023,T02,LDIAM,14.9,mm,1288,TA23
S0023,T03,LDIAM,16.6,mm,1288,TA23
S0023,T04,LDIAM,13.9,mm,1288,TA23
S0023,,SUMDIAM,56.6,mm,1288,TA23
S0023,T01,LDIAM,11.2,mm,1344,TA24
S0023,T02,LDIAM,14.9,mm,1344,TA24
S0023,T03,LDIAM,16.6,mm,1344,TA24
S0023,T04,LDIAM,13.9,mm,1344,TA24
S0023,,SUMDIAM,56.6,mm,1344,TA24
S0023,T01,LDIAM,11.2,mm,1400,TA25
S0023,T02,LDIAM,14.9,mm,1400,TA25
S0023,T03,LDIAM,16.6,mm,1400,TA25
S0023,T04,LDIAM,13.9,mm,1400,TA25
S0023,,SUMDIAM,56.6,mm,1400,TA25
S0023,T01,LDIAM,11.2,mm,1456,TA26
S0023,T02,LDIAM,14.9,mm,1456,TA26
S0023,T03,LDIAM,16.6,mm,1456,TA26
S0023,T04,LDIAM,13.9,mm,1456,TA26
S0023,,SUMDIAM,56.6,mm,1456,TA26
S0023,T01,LDIAM,11.2,mm,1512,TA27
S0023,T02,LDIAM,14.9,mm,1512,TA27
S0023,T03,LDIAM,16.6,mm,1512,TA27
S0023,T04,LDIAM,13.9,mm,1512,TA27
S0023,,SUMDIAM,56.6,mm,1512,TA27
S0023,T01,LDIAM,11.2,mm,1568,TA28
S0023,T02,LDIAM,14.9,mm,1568,TA28
S0023,T03,LDIAM,16.6,mm,1568,TA28
S0023,T04,LDIAM,13.9,mm,1568,TA28
S0023,,SUMDIAM,56.6,mm,1568,TA28
S0023,T01,LDIAM,11.2,mm,1624,TA29
S0023,T02,LDIAM,14.9,mm,1624,TA29
S0023,T03,LDIAM,16.6,mm,1624,TA29
S0023,T04,LDIAM,13.9,mm,1624,TA29
S0023,,SUMDIAM,56.6,mm,1624,TA29
S0023,T01,LDIAM,11.2,mm,1680,TA30
S0023,T02,LDIAM,14.9,mm,1680,TA30
S0023,T03,LDIAM,16.6,mm,1680,TA30
S0023,T04,LDIAM,13.9,mm,1680,TA30
S0023,,SUMDIAM,56.6,mm,1680,TA30
S0023,T01,LDIAM,11.2,mm,1736,TA31
S0023,T02,LDIAM,14.9,mm,1736,TA31
S0023,T03,LDIAM,16.6,mm,1736,TA31
S0023,T04,LDIAM,13.9,mm,1736,TA31
S0023,,SUMDIAM,56.6,mm,1736,TA31
S0023,T01,LDIAM,11.2,mm,1792,TA32
S0023,T02,LDIAM,14.9,mm,1792,TA32
S0023,T03,LDIAM,16.6,mm,1792,TA32
S0023,T04,LDIAM,13.9,mm,1792,TA32
S0023,,SUMDIAM,56.6,mm,1792,TA32
S0023,T01,LDIAM,11.2,mm,1848,TA33
S0023,T02,LDIAM,14.9,mm,1848,TA33
S0023,T03,LDIAM,16.6,mm,1848,TA33
S0023,T04,LDIAM,13.9,mm,1848,TA33
S0023,,SUMDIAM,56.6,mm,1848,TA33
S0023,T01,LDIAM,11.2,mm,1904,TA34
S0023,T02,LDIAM,14.9,mm,1904,TA34
S0023,T03,LDIAM,16.6,mm,1904,TA34
S0023,T04,LDIAM,13.9,mm,1904,TA34
S0023,,SUMDIAM,56.6,mm,1904,TA34
S0023,T01,LDIAM,11.2,mm,1960,TA35
S0023,T02,LDIAM,14.9,mm,1960,TA35
S0023,T03,LDIAM,16.6,mm,1960,TA35
S0023,T04,LDIAM,13.9,mm,1960,TA35
S0023,,SUMDIAM,56.6,mm,1960,TA35
S0023,T01,LDIAM,14.1,mm,2016,TA36
S0023,T02,LDIAM,18.8,mm,2016,TA36
S0023,T03,LDIAM,20.9,mm,2016,TA36
S0023,T04,LDIAM,17.5,mm,2016,TA36
S0023,,SUMDIAM,71.3,mm,2016,TA36
S0024,T01,LDIAM,53.2,mm,0,BASELINE
S0024,T02,LDIAM,18.0,mm,0,BASELINE
S0024,T03,LDIAM,27.6,mm,0,BASELINE
S0024,T04,LDIAM,45.5,mm,0,BASELINE
S0024,,SUMDIAM,144.3,mm,0,BASELINE
S0024,T01,LDIAM,43.0,mm,56,TA1
S0024,T02,LDIAM,14.6,mm,56,TA1
S0024,T03,LDIAM,22.3,mm,56,TA1
S0024,T04,LDIAM,36.8,mm,56,TA1
S0024,,SUMDIAM,116.7,mm,56,TA1
S0024,T01,LDIAM,54.3,mm,112,TA2
S0024,T02,LDIAM,18.4,mm,112,TA2
S0024,T03,LDIAM,28.2,mm,112,TA2
S0024,T04,LDIAM,46.4,mm,112,TA2
S0024,,SUMDIAM,147.3,mm,112,TA2
S0025,T01,LDIAM,40.7,mm,0,BASELINE
S0025,T02,LDIAM,56.9,mm,0,BASELINE
S0025,T03,LDIAM,42.4,mm,0,BASELINE
S0025,T04,LDIAM,34.2,mm,0,BASELINE
S0025,T05,LDIAM,48.0,mm,0,BASELINE
S0025,,SUMDIAM,222.2,mm,0,BASELINE
S0025,T01,LDIAM,50.9,mm,56,TA1
S0025,T02,LDIAM,71.1,mm,56,TA1
S0025,T03,LDIAM,53.0,mm,56,TA1
S0025,T04,LDIAM,42.8,mm,56,TA1
S0025,T05,LDIAM,60.0,mm,56,TA1
S0025,,SUMDIAM,277.8,mm,56,TA1
S0026,T01,LDIAM,20.3,mm,0,BASELINE
S0026,,SUMDIAM,20.3,mm,0,BASELINE
S0026,T01,LDIAM,11.6,mm,56,TA1
S0026,,SUMDIAM,11.6,mm,56,TA1
S0026,T01,LDIAM,2.9,mm,112,TA2
S0026,,SUMDIAM,2.9,mm,112,TA2
S0026,T01,LDIAM,2.9,mm,168,TA3
S0026,,SUMDIAM,2.9,mm,168,TA3
S0026,T01,LDIAM,8.9,mm,224,TA4
S0026,,SUMDIAM,8.9,mm,224,TA4
S0026,T01,LDIAM,8.9,mm,280,TA5
S0026,,SUMDIAM,8.9,mm,280,TA5
S0026,T01,LDIAM,8.9,mm,336,TA6
S0026,,SUMDIAM,8.9,mm,336,TA6
S0026,T01,LDIAM,8.9,mm,392,TA7
S0026,,SUMDIAM,8.9,mm,392,TA7
S0026,T01,LDIAM,8.9,mm,448,TA8
S0026,,SUMDIAM,8.9,mm,448,TA8
S0026,T01,LDIAM,8.9,mm,504,TA9
S0026,,SUMDIAM,8.9,mm,504,TA9
S0026,T01,LDIAM,8.9,mm,560,TA10
S0026,,SUMDIAM,8.9,mm,560,TA10
S0026,T01,LDIAM,8.9,mm,616,TA11
S0026,,SUMDIAM,8.9,mm,616,TA11
S0026,T01,LDIAM,8.9,mm,672,TA12
S0026,,SUMDIAM,8.9,mm,672,TA12
S0026,T01,LDIAM,8.9,mm,728,TA13
S0026,,SUMDIAM,8.9,mm,728,TA13
S0027,T01,LDIAM,57.0,mm,0,BASELINE
S0027,T02,LDIAM,12.9,mm,0,BASELINE
S0027,T03,LDIAM,57.6,mm,0,BASELINE
S0027,T04,LDIAM,20.2,mm,0,BASELINE
S0027,,SUMDIAM,147.7,mm,0,BASELINE
S0027,T01,LDIAM,56.3,mm,56,TA1
S0027,T02,LDIAM,12.8,mm,56,TA1
S0027,T03,LDIAM,56.9,mm,56,TA1
S0027,T04,LDIAM,20.0,mm,56,TA1
S0027,,SUMDIAM,146.0,mm,56,TA1
S0027,T01,LDIAM,55.7,mm,112,TA2
S0027,T02,LDIAM,12.6,mm,112,TA2
S0027,T03,LDIAM,56.3,mm,112,TA2
S0027,T04,LDIAM,19.7,mm,112,TA2
S0027,,SUMDIAM,144.3,mm,112,TA2
S0027,T01,LDIAM,55.7,mm,168,TA3
S0027,T02,LDIAM,12.6,mm,168,TA3
S0027,T03,LDIAM,56.3,mm,168,TA3
S0027,T04,LDIAM,19.7,mm,168,TA3
S0027,,SUMDIAM,144.3,mm,168,TA3
S0027,T01,LDIAM,55.7,mm,224,TA4
S0027,T02,LDIAM,12.6,mm,224,TA4
S0027,T03,LDIAM,56.3,mm,224,TA4
S0027,T04,LDIAM,19.7,mm,224,TA4
S0027,,SUMDIAM,144.3,mm,224,TA4
S0027,T01,LDIAM,55.7,mm,280,TA5
S0027,T02,LDIAM,12.6,mm,280,TA5
S0027,T03,LDIAM,56.3,mm,280,TA5
S0027,T04,LDIAM,19.7,mm,280,TA5
S0027,,SUMDIAM,144.3,mm,280,TA5
S0027,T01,LDIAM,55.7,mm,336,TA6
S0027,T02,LDIAM,12.6,mm,336,TA6
S0027,T03,LDIAM,56.3,mm,336,TA6
S0027,T04,LDIAM,19.7,mm,336,TA6
S0027,,SUMDIAM,144.3,mm,336,TA6
S0027,T01,LDIAM,55.7,mm,392,TA7
S0027,T02,LDIAM,12.6,mm,392,TA7
S0027,T03,LDIAM,56.3,mm,392,TA7
S0027,T04,LDIAM,19.7,mm,392,TA7
S0027,,SUMDIAM,144.3,mm,392,TA7
S0027,T01,LDIAM,55.7,mm,448,TA8
S0027,T02,LDIAM,12.6,mm,448,TA8
S0027,T03,LDIAM,56.3,mm,448,TA8
S0027,T04,LDIAM,19.7,mm,448,TA8
S0027,,SUMDIAM,144.3,mm,448,TA8
S0027,T01,LDIAM,55.7,mm,504,TA9
S0027,T02,LDIAM,12.6,mm,504,TA9
S0027,T03,LDIAM,56.3,mm,504,TA9
S0027,T04,LDIAM,19.7,mm,504,TA9
S0027,,SUMDIAM,144.3,mm,504,TA9
S0027,T01,LDIAM,55.7,mm,560,TA10
S0027,T02,LDIAM,12.6,mm,560,TA10
S0027,T03,LDIAM,56.3,mm,560,TA10
S0027,T04,LDIAM,19.7,mm,560,TA10
S0027,,SUMDIAM,144.3,mm,560,TA10
S0027,T01,LDIAM,55.7,mm,616,TA11
S0027,T02,LDIAM,12.6,mm,616,TA11
S0027,T03,LDIAM,56.3,mm,616,TA11
S0027,T04,LDIAM,19.7,mm,616,TA11
S0027,,SUMDIAM,144.3,mm,616,TA11
S0027,T01,LDIAM,55.7,mm,672,TA12
S0027,T02,LDIAM,12.6,mm,672,TA12
S0027,T03,LDIAM,56.3,mm,672,TA12
S0027,T04,LDIAM,19.7,mm,672,TA12
S0027,,SUMDIAM,144.3,mm,672,TA12
S0027,T01,LDIAM,55.7,mm,728,TA13
S0027,T02,LDIAM,12.6,mm,728,TA13
S0027,T03,LDIAM,56.3,mm,728,TA13
S0027,T04,LDIAM,19.7,mm,728,TA13
S0027,,SUMDIAM,144.3,mm,728,TA13
S0027,T01,LDIAM,55.7,mm,784,TA14
S0027,T02,LDIAM,12.6,mm,784,TA14
S0027,T03,LDIAM,56.3,mm,784,TA14
S0027,T04,LDIAM,19.7,mm,784,TA14
S0027,,SUMDIAM,144.3,mm,784,TA14
S0027,T01,LDIAM,55.7,mm,840,TA15
S0027,T02,LDIAM,12.6,mm,840,TA15
S0027,T03,LDIAM,56.3,mm,840,TA15
S0027,T04,LDIAM,19.7,mm,840,TA15
S0027,,SUMDIAM,144.3,mm,840,TA15
S0027,T01,LDIAM,55.7,mm,896,TA16
S0027,T02,LDIAM,12.6,mm,896,TA16
S0027,T03,LDIAM,56.3,mm,896,TA16
S0027,T04,LDIAM,19.7,mm,896,TA16
S0027,,SUMDIAM,144.3,mm,896,TA16
S0027,T01,LDIAM,55.7,mm,952,TA17
S0027,T02,LDIAM,12.6,mm,952,TA17
S0027,T03,LDIAM,56.3,mm,952,TA17
S0027,T04,LDIAM,19.7,mm,952,TA17
S0027,,SUMDIAM,144.3,mm,952,TA17
S0027,T01,LDIAM,55.7,mm,1008,TA18
S0027,T02,LDIAM,12.6,mm,1008,TA18
S0027,T03,LDIAM,56.3,mm,1008,TA18
S0027,T04,LDIAM,19.7,mm,1008,TA18
S0027,,SUMDIAM,144.3,mm,1008,TA18
S0027,T01,LDIAM,55.7,mm,1064,TA19
S0027,T02,LDIAM,12.6,mm,1064,TA19
S0027,T03,LDIAM,56.3,mm,1064,TA19
S0027,T04,LDIAM,19.7,mm,1064,TA19
S0027,,SUMDIAM,144.3,mm,1064,TA19
S0027,T01,LDIAM,55.7,mm,1120,TA20
S0027,T02,LDIAM,12.6,mm,1120,TA20
S0027,T03,LDIAM,56.3,mm,1120,TA20
S0027,T04,LDIAM,19.7,mm,1120,TA20
S0027,,SUMDIAM,144.3,mm,1120,TA20
S0027,T01,LDIAM,55.7,mm,1176,TA21
S0027,T02,LDIAM,12.6,mm,1176,TA21
S0027,T03,LDIAM,56.3,mm,1176,TA21
S0027,T04,LDIAM,19.7,mm,1176,TA21
S0027,,SUMDIAM,144.3,mm,1176,TA21
S0027,T01,LDIAM,55.7,mm,1232,TA22
S0027,T02,LDIAM,12.6,mm,1232,TA22
S0027,T03,LDIAM,56.3,mm,1232,TA22
S0027,T04,LDIAM,19.7,mm,1232,TA22
S0027,,SUMDIAM,144.3,mm,1232,TA22
S0027,T01,LDIAM,55.7,mm,1288,TA23
S0027,T02,LDIAM,12.6,mm,1288,TA23
S0027,T03,LDIAM,56.3,mm,1288,TA23
S0027,T04,LDIAM,19.7,mm,1288,TA23
S0027,,SUMDIAM,144.3,mm,1288,TA23
S0027,T01,LDIAM,55.7,mm,1344,TA24
S0027,T02,LDIAM,12.6,mm,1344,TA24
S0027,T03,LDIAM,56.3,mm,1344,TA24
S0027,T04,LDIAM,19.7,mm,1344,TA24
S0027,,SUMDIAM,144.3,mm,1344,TA24
S0027,T01,LDIAM,55.7,mm,1400,TA25
S0027,T02,LDIAM,12.6,mm,1400,TA25
S0027,T03,LDIAM,56.3,mm,1400,TA25
S0027,T04,LDIAM,19.7,mm,1400,TA25
S0027,,SUMDIAM,144.3,mm,1400,TA25
S0027,T01,LDIAM,55.7,mm,1456,TA26
S0027,T02,LDIAM,12.6,mm,1456,TA26
S0027,T03,LDIAM,56.3,mm,1456,TA26
S0027,T04,LDIAM,19.7,mm,1456,TA26
S0027,,SUMDIAM,144.3,mm,1456,TA26
S0027,T01,LDIAM,55.7,mm,1512,TA27
S0027,T02,LDIAM,12.6,mm,1512,TA27
S0027,T03,LDIAM,56.3,mm,1512,TA27
S0027,T04,LDIAM,19.7,mm,1512,TA27
S0027,,SUMDIAM,144.3,mm,1512,TA27
S0027,T01,LDIAM,55.7,mm,1568,TA28
S0027,T02,LDIAM,12.6,mm,1568,TA28
S0027,T03,LDIAM,56.3,mm,1568,TA28
S0027,T04,LDIAM,19.7,mm,1568,TA28
S0027,,SUMDIAM,144.3,mm,1568,TA28
S0027,T01,LDIAM,55.7,mm,1624,TA29
S0027,T02,LDIAM,12.6,mm,1624,TA29
S0027,T03,LDIAM,56.3,mm,1624,TA29
S0027,T04,LDIAM,19.7,mm,1624,TA29
S0027,,SUMDIAM,144.3,mm,1624,TA29
S0027,T01,LDIAM,55.7,mm,1680,TA30
S0027,T02,LDIAM,12.6,mm,1680,TA30
S0027,T03,LDIAM,56.3,mm,1680,TA30
S0027,T04,LDIAM,19.7,mm,1680,TA30
S0027,,SUMDIAM,144.3,mm,1680,TA30
S0027,T01,LDIAM,55.7,mm,1736,TA31
S0027,T02,LDIAM,12.6,mm,1736,TA31
S0027,T03,LDIAM,56.3,mm,1736,TA31
S0027,T04,LDIAM,19.7,mm,1736,TA31
S0027,,SUMDIAM,144.3,mm,1736,TA31
S0027,T01,LDIAM,55.7,mm,1792,TA32
S0027,T02,LDIAM,12.6,mm,1792,TA32
S0027,T03,LDIAM,56.3,mm,1792,TA32
S0027,T04,LDIAM,19.7,mm,1792,TA32
S0027,,SUMDIAM,144.3,mm,1792,TA32
S0027,T01,LDIAM,55.7,mm,1848,TA33
S0027,T02,LDIAM,12.6,mm,1848,TA33
S0027,T03,LDIAM,56.3,mm,1848,TA33
S0027,T04,LDIAM,19.7,mm,1848,TA33
S0027,,SUMDIAM,144.3,mm,1848,TA33
S0027,T01,LDIAM,55.7,mm,1904,TA34
S0027,T02,LDIAM,12.6,mm,1904,TA34
S0027,T03,LDIAM,56.3,mm,1904,TA34
S0027,T04,LDIAM,19.7,mm,1904,TA34
S0027,,SUMDIAM,144.3,mm,1904,TA34
S0027,T01,LDIAM,55.7,mm,1960,TA35
S0027,T02,LDIAM,12.6,mm,1960,TA35
S0027,T03,LDIAM,56.3,mm,1960,TA35
S0027,T04,LDIAM,19.7,mm,1960,TA35
S0027,,SUMDIAM,144.3,mm,1960,TA35
S0027,T01,LDIAM,55.7,mm,2016,TA36
S0027,T02,LDIAM,12.6,mm,2016,TA36
S0027,T03,LDIAM,56.3,mm,2016,TA36
S0027,T04,LDIAM,19.7,mm,2016,TA36
S0027,,SUMDIAM,144.3,mm,2016,TA36
S0027,T01,LDIAM,55.7,mm,2072,TA37
S0027,T02,LDIAM,12.6,mm,2072,TA37
S0027,T03,LDIAM,56.3,mm,2072,TA37
S0027,T04,LDIAM,19.7,mm,2072,TA37
S0027,,SUMDIAM,144.3,mm,2072,TA37
S0027,T01,LDIAM,55.7,mm,2128,TA38
S0027,T02,LDIAM,12.6,mm,2128,TA38
S0027,T03,LDIAM,56.3,mm,2128,TA38
S0027,T04,LDIAM,19.7,mm,2128,TA38
S0027,,SUMDIAM,144.3,mm,2128,TA38
S0027,T01,LDIAM,55.7,mm,2184,TA39
S0027,T02,LDIAM,12.6,mm,2184,TA39
S0027,T03,LDIAM,56.3,mm,2184,TA39
S0027,T04,LDIAM,19.7,mm,2184,TA39
S0027,,SUMDIAM,144.3,mm,2184,TA39
S0028,T01,LDIAM,41.8,mm,0,BASELINE
S0028,,SUMDIAM,41.8,mm,0,BASELINE
S0028,T01,LDIAM,25.3,mm,56,TA1
S0028,,SUMDIAM,25.3,mm,56,TA1
S0028,T01,LDIAM,8.8,mm,112,TA2
S0028,,SUMDIAM,8.8,mm,112,TA2
S0028,T01,LDIAM,8.8,mm,168,TA3
S0028,,SUMDIAM,8.8,mm,168,TA3
S0028,T01,LDIAM,8.8,mm,224,TA4
S0028,,SUMDIAM,8.8,mm,224,TA4
S0028,T01,LDIAM,8.8,mm,280,TA5
S0028,,SUMDIAM,8.8,mm,280,TA5
S0028,T01,LDIAM,8.8,mm,336,TA6
S0028,,SUMDIAM,8.8,mm,336,TA6
S0028,T01,LDIAM,8.8,mm,392,TA7
S0028,,SUMDIAM,8.8,mm,392,TA7
S0028,T01,LDIAM,8.8,mm,448,TA8
S0028,,SUMDIAM,8.8,mm,448,TA8
S0028,T01,LDIAM,8.8,mm,504,TA9
S0028,,SUMDIAM,8.8,mm,504,TA9
S0028,T01,LDIAM,8.8,mm,560,TA10
S0028,,SUMDIAM,8.8,mm,560,TA10
S0028,T01,LDIAM,8.8,mm,616,TA11
S0028,,SUMDIAM,8.8,mm,616,TA11
S0028,T01,LDIAM,8.8,mm,672,TA12
S0028,,SUMDIAM,8.8,mm,672,TA12
S0028,T01,LDIAM,8.8,mm,728,TA13
S0028,,SUMDIAM,8.8,mm,728,TA13
S0028,T01,LDIAM,14.8,mm,784,TA14
S0028,,SUMDIAM,14.8,mm,784,TA14
S0028,T01,LDIAM,14.8,mm,840,TA15
S0028,,SUMDIAM,14.8,mm,840,TA15
S0029,T01,LDIAM,16.7,mm,0,BASELINE
S0029,T02,LDIAM,41.1,mm,0,BASELINE
S0029,,SUMDIAM,57.8,mm,0,BASELINE
S0029,T01,LDIAM,16.9,mm,56,TA1
S0029,T02,LDIAM,41.7,mm,56,TA1
S0029,,SUMDIAM,58.6,mm,56,TA1
S0029,T01,LDIAM,17.2,mm,112,TA2
S0029,T02,LDIAM,42.2,mm,112,TA2
S0029,,SUMDIAM,59.4,mm,112,TA2
S0029,T01,LDIAM,20.9,mm,168,TA3
S0029,T02,LDIAM,51.4,mm,168,TA3
S0029,,SUMDIAM,72.2,mm,168,TA3
S0030,T01,LDIAM,59.8,mm,0,BASELINE
S0030,,SUMDIAM,59.8,mm,0,BASELINE
S0030,T01,LDIAM,64.2,mm,56,TA1
S0030,,SUMDIAM,64.2,mm,56,TA1
S0030,T01,LDIAM,68.6,mm,112,TA2
S0030,,SUMDIAM,68.6,mm,112,TA2
S0030,T01,LDIAM,68.6,mm,168,TA3
S0030,,SUMDIAM,68.6,mm,168,TA3
S0030,T01,LDIAM,68.6,mm,224,TA4
S0030,,SUMDIAM,68.6,mm,224,TA4
S0030,T01,LDIAM,68.6,mm,280,TA5
S0030,,SUMDIAM,68.6,mm,280,TA5
S0030,T01,LDIAM,74.8,mm,336,TA6
S0030,,SUMDIAM,74.8,mm,336,TA6
S0031,T01,LDIAM,39.6,mm,0,BASELINE
S0031,T02,LDIAM,41.0,mm,0,BASELINE
S0031,T03,LDIAM,44.1,mm,0,BASELINE
S0031,T04,LDIAM,12.2,mm,0,BASELINE
S0031,,SUMDIAM,136.9,mm,0,BASELINE
S0031,T01,LDIAM,35.8,mm,56,TA1
S0031,T02,LDIAM,37.1,mm,56,TA1
S0031,T03,LDIAM,39.9,mm,56,TA1
S0031,T04,LDIAM,11.0,mm,56,TA1
S0031,,SUMDIAM,123.8,mm,56,TA1
S0031,T01,LDIAM,32.0,mm,112,TA2
S0031,T02,LDIAM,33.2,mm,112,TA2
S0031,T03,LDIAM,35.7,mm,112,TA2
S0031,T04,LDIAM,9.9,mm,112,TA2
S0031,,SUMDIAM,110.7,mm,112,TA2
S0031,T01,LDIAM,32.0,mm,168,TA3
S0031,T02,LDIAM,33.2,mm,168,TA3
S0031,T03,LDIAM,35.7,mm,168,TA3
S0031,T04,LDIAM,9.9,mm,168,TA3
S0031,,SUMDIAM,110.7,mm,168,TA3
S0031,T01,LDIAM,32.0,mm,224,TA4
S0031,T02,LDIAM,33.2,mm,224,TA4
S0031,T03,LDIAM,35.7,mm,224,TA4
S0031,T04,LDIAM,9.9,mm,224,TA4
S0031,,SUMDIAM,110.7,mm,224,TA4
S0032,T01,LDIAM,53.2,mm,0,BASELINE
S0032,T02,LDIAM,15.3,mm,0,BASELINE
S0032,T03,LDIAM,15.7,mm,0,BASELINE
S0032,T04,LDIAM,51.4,mm,0,BASELINE
S0032,,SUMDIAM,135.6,mm,0,BASELINE
S0032,T01,LDIAM,27.9,mm,56,TA1
S0032,T02,LDIAM,8.0,mm,56,TA1
S0032,T03,LDIAM,8.2,mm,56,TA1
S0032,T04,LDIAM,27.0,mm,56,TA1
S0032,,SUMDIAM,71.1,mm,56,TA1
S0032,T01,LDIAM,2.6,mm,112,TA2
S0032,T02,LDIAM,0.8,mm,112,TA2
S0032,T03,LDIAM,0.8,mm,112,TA2
S0032,T04,LDIAM,2.5,mm,112,TA2
S0032,,SUMDIAM,6.7,mm,112,TA2
S0032,T01,LDIAM,2.6,mm,168,TA3
S0032,T02,LDIAM,0.8,mm,168,TA3
S0032,T03,LDIAM,0.8,mm,168,TA3
S0032,T04,LDIAM,2.5,mm,168,TA3
S0032,,SUMDIAM,6.7,mm,168,TA3
S0032,T01,LDIAM,2.6,mm,224,TA4
S0032,T02,LDIAM,0.8,mm,224,TA4
S0032,T03,LDIAM,0.8,mm,224,TA4
S0032,T04,LDIAM,2.5,mm,224,TA4
S0032,,SUMDIAM,6.7,mm,224,TA4
S0032,T01,LDIAM,2.6,mm,280,TA5
S0032,T02,LDIAM,0.8,mm,280,TA5
S0032,T03,LDIAM,0.8,mm,280,TA5
S0032,T04,LDIAM,2.5,mm,280,TA5
S0032,,SUMDIAM,6.7,mm,280,TA5
S0032,T01,LDIAM,2.6,mm,336,TA6
S0032,T02,LDIAM,0.8,mm,336,TA6
S0032,T03,LDIAM,0.8,mm,336,TA6
S0032,T04,LDIAM,2.5,mm,336,TA6
S0032,,SUMDIAM,6.7,mm,336,TA6
S0032,T01,LDIAM,2.6,mm,392,TA7
S0032,T02,LDIAM,0.8,mm,392,TA7
S0032,T03,LDIAM,0.8,mm,392,TA7
S0032,T04,LDIAM,2.5,mm,392,TA7
S0032,,SUMDIAM,6.7,mm,392,TA7
S0032,T01,LDIAM,2.6,mm,448,TA8
S0032,T02,LDIAM,0.8,mm,448,TA8
S0032,T03,LDIAM,0.8,mm,448,TA8
S0032,T04,LDIAM,2.5,mm,448,TA8
S0032,,SUMDIAM,6.7,mm,448,TA8
S0032,T01,LDIAM,2.6,mm,504,TA9
S0032,T02,LDIAM,0.8,mm,504,TA9
S0032,T03,LDIAM,0.8,mm,504,TA9
S0032,T04,LDIAM,2.5,mm,504,TA9
S0032,,SUMDIAM,6.7,mm,504,TA9
S0032,T01,LDIAM,2.6,mm,560,TA10
S0032,T02,LDIAM,0.8,mm,560,TA10
S0032,T03,LDIAM,0.8,mm,560,TA10
S0032,T04,LDIAM,2.5,mm,560,TA10
S0032,,SUMDIAM,6.7,mm,560,TA10
S0032,T01,LDIAM,2.6,mm,616,TA11
S0032,T02,LDIAM,0.8,mm,616,TA11
S0032,T03,LDIAM,0.8,mm,616,TA11
S0032,T04,LDIAM,2.5,mm,616,TA11
S0032,,SUMDIAM,6.7,mm,616,TA11
S0032,T01,LDIAM,2.6,mm,672,TA12
S0032,T02,LDIAM,0.8,mm,672,TA12
S0032,T03,LDIAM,0.8,mm,672,TA12
S0032,T04,LDIAM,2.5,mm,672,TA12
S0032,,SUMDIAM,6.7,mm,672,TA12
S0032,T01,LDIAM,2.6,mm,728,TA13
S0032,T02,LDIAM,0.8,mm,728,TA13
S0032,T03,LDIAM,0.8,mm,728,TA13
S0032,T04,LDIAM,2.5,mm,728,TA13
S0032,,SUMDIAM,6.7,mm,728,TA13
S0032,T01,LDIAM,5.8,mm,784,TA14
S0032,T02,LDIAM,1.7,mm,784,TA14
S0032,T03,LDIAM,1.7,mm,784,TA14
S0032,T04,LDIAM,5.6,mm,784,TA14
S0032,,SUMDIAM,14.8,mm,784,TA14
S0032,T01,LDIAM,5.8,mm,840,TA15
S0032,T02,LDIAM,1.7,mm,840,TA15
S0032,T03,LDIAM,1.7,mm,840,TA15
S0032,T04,LDIAM,5.6,mm,840,TA15
S0032,,SUMDIAM,14.8,mm,840,TA15
S0032,T01,LDIAM,5.8,mm,896,TA16
S0032,T02,LDIAM,1.7,mm,896,TA16
S0032,T03,LDIAM,1.7,mm,896,TA16
S0032,T04,LDIAM,5.6,mm,896,TA16
S0032,,SUMDIAM,14.8,mm,896,TA16
S0032,T01,LDIAM,5.8,mm,952,TA17
S0032,T02,LDIAM,1.7,mm,952,TA17
S0032,T03,LDIAM,1.7,mm,952,TA17
S0032,T04,LDIAM,5.6,mm,952,TA17
S0032,,SUMDIAM,14.8,mm,952,TA17
S0032,T01,LDIAM,5.8,mm,1008,TA18
S0032,T02,LDIAM,1.7,mm,1008,TA18
S0032,T03,LDIAM,1.7,mm,1008,TA18
S0032,T04,LDIAM,5.6,mm,1008,TA18
S0032,,SUMDIAM,14.8,mm,1008,TA18
S0032,T01,LDIAM,5.8,mm,1064,TA19
S0032,T02,LDIAM,1.7,mm,1064,TA19
S0032,T03,LDIAM,1.7,mm,1064,TA19
S0032,T04,LDIAM,5.6,mm,1064,TA19
S0032,,SUMDIAM,14.8,mm,1064,TA19
S0032,T01,LDIAM,5.8,mm,1120,TA20
S0032,T02,LDIAM,1.7,mm,1120,TA20
S0032,T03,LDIAM,1.7,mm,1120,TA20
S0032,T04,LDIAM,5.6,mm,1120,TA20
S0032,,SUMDIAM,14.8,mm,1120,TA20
S0032,T01,LDIAM,5.8,mm,1176,TA21
S0032,T02,LDIAM,1.7,mm,1176,TA21
S0032,T03,LDIAM,1.7,mm,1176,TA21
S0032,T04,LDIAM,5.6,mm,1176,TA21
S0032,,SUMDIAM,14.8,mm,1176,TA21
S0032,T01,LDIAM,5.8,mm,1232,TA22
S0032,T02,LDIAM,1.7,mm,1232,TA22
S0032,T03,LDIAM,1.7,mm,1232,TA22
S0032,T04,LDIAM,5.6,mm,1232,TA22
S0032,,SUMDIAM,14.8,mm,1232,TA22
S0032,T01,LDIAM,5.8,mm,1288,TA23
S0032,T02,LDIAM,1.7,mm,1288,TA23
S0032,T03,LDIAM,1.7,mm,1288,TA23
S0032,T04,LDIAM,5.6,mm,1288,TA23
S0032,,SUMDIAM,14.8,mm,1288,TA23
S0032,T01,LDIAM,5.8,mm,1344,TA24
S0032,T02,LDIAM,1.7,mm,1344,TA24
S0032,T03,LDIAM,1.7,mm,1344,TA24
S0032,T04,LDIAM,5.6,mm,1344,TA24
S0032,,SUMDIAM,14.8,mm,1344,TA24
S0033,T01,LDIAM,31.0,mm,0,BASELINE
S0033,,SUMDIAM,31.0,mm,0,BASELINE
S0033,T01,LDIAM,18.2,mm,56,TA1
S0033,,SUMDIAM,18.2,mm,56,TA1
S0033,T01,LDIAM,5.5,mm,112,TA2
S0033,,SUMDIAM,5.5,mm,112,TA2
S0033,T01,LDIAM,5.5,mm,168,TA3
S0033,,SUMDIAM,5.5,mm,168,TA3
S0033,T01,LDIAM,5.5,mm,224,TA4
S0033,,SUMDIAM,5.5,mm,224,TA4
S0033,T01,LDIAM,5.5,mm,280,TA5
S0033,,SUMDIAM,5.5,mm,280,TA5
S0033,T01,LDIAM,5.5,mm,336,TA6
S0033,,SUMDIAM,5.5,mm,336,TA6
S0033,T01,LDIAM,5.5,mm,392,TA7
S0033,,SUMDIAM,5.5,mm,392,TA7
S0033,T01,LDIAM,5.5,mm,448,TA8
S0033,,SUMDIAM,5.5,mm,448,TA8
S0033,T01,LDIAM,5.5,mm,504,TA9
S0033,,SUMDIAM,5.5,mm,504,TA9
S0033,T01,LDIAM,5.5,mm,560,TA10
S0033,,SUMDIAM,5.5,mm,560,TA10
S0033,T01,LDIAM,5.5,mm,616,TA11
S0033,,SUMDIAM,5.5,mm,616,TA11
S0033,T01,LDIAM,5.5,mm,672,TA12
S0033,,SUMDIAM,5.5,mm,672,TA12
S0033,T01,LDIAM,5.5,mm,728,TA13
S0033,,SUMDIAM,5.5,mm,728,TA13
S0033,T01,LDIAM,5.5,mm,784,TA14
S0033,,SUMDIAM,5.5,mm,784,TA14
S0033,T01,LDIAM,5.5,mm,840,TA15
S0033,,SUMDIAM,5.5,mm,840,TA15
S0033,T01,LDIAM,5.5,mm,896,TA16
S0033,,SUMDIAM,5.5,mm,896,TA16
S0033,T01,LDIAM,5.5,mm,952,TA17
S0033,,SUMDIAM,5.5,mm,952,TA17
S0033,T01,LDIAM,5.5,mm,1008,TA18
S0033,,SUMDIAM,5.5,mm,1008,TA18
S0033,T01,LDIAM,5.5,mm,1064,TA19
S0033,,SUMDIAM,5.5,mm,1064,TA19
S0033,T01,LDIAM,5.5,mm,1120,TA20
S0033,,SUMDIAM,5.5,mm,1120,TA20
S0033,T01,LDIAM,5.5,mm,1176,TA21
S0033,,SUMDIAM,5.5,mm,1176,TA21
S0033,T01,LDIAM,5.5,mm,1232,TA22
S0033,,SUMDIAM,5.5,mm,1232,TA22
S0033,T01,LDIAM,5.5,mm,1288,TA23
S0033,,SUMDIAM,5.5,mm,1288,TA23
S0033,T01,LDIAM,5.5,mm,1344,TA24
S0033,,SUMDIAM,5.5,mm,1344,TA24
S0033,T01,LDIAM,5.5,mm,1400,TA25
S0033,,SUMDIAM,5.5,mm,1400,TA25
S0033,T01,LDIAM,5.5,mm,1456,TA26
S0033,,SUMDIAM,5.5,mm,1456,TA26
S0033,T01,LDIAM,5.5,mm,1512,TA27
S0033,,SUMDIAM,5.5,mm,1512,TA27
S0033,T01,LDIAM,11.5,mm,1568,TA28
S0033,,SUMDIAM,11.5,mm,1568,TA28
S0033,T01,LDIAM,11.5,mm,1624,TA29
S0033,,SUMDIAM,11.5,mm,1624,TA29
S0033,T01,LDIAM,11.5,mm,1680,TA30
S0033,,SUMDIAM,11.5,mm,1680,TA30
S0033,T01,LDIAM,11.5,mm,1736,TA31
S0033,,SUMDIAM,11.5,mm,1736,TA31
S0033,T01,LDIAM,11.5,mm,1792,TA32
S0033,,SUMDIAM,11.5,mm,1792,TA32
S0033,T01,LDIAM,11.5,mm,1848,TA33
S0033,,SUMDIAM,11.5,mm,1848,TA33
S0033,T01,LDIAM,11.5,mm,1904,TA34
S0033,,SUMDIAM,11.5,mm,1904,TA34
S0033,T01,LDIAM,11.5,mm,1960,TA35
S0033,,SUMDIAM,11.5,mm,1960,TA35
S0033,T01,LDIAM,11.5,mm,2016,TA36
S0033,,SUMDIAM,11.5,mm,2016,TA36
S0033,T01,LDIAM,11.5,mm,2072,TA37
S0033,,SUMDIAM,11.5,mm,2072,TA37
S0033,T01,LDIAM,11.5,mm,2128,TA38
S0033,,SUMDIAM,11.5,mm,2128,TA38
S0033,T01,LDIAM,11.5,mm,2184,TA39
S0033,,SUMDIAM,11.5,mm,2184,TA39
S0033,T01,LDIAM,11.5,mm,2240,TA40
S0033,,SUMDIAM,11.5,mm,2240,TA40
S0033,T01,LDIAM,11.5,mm,2296,TA41
S0033,,SUMDIAM,11.5,mm,2296,TA41
S0033,T01,LDIAM,11.5,mm,2352,TA42
S0033,,SUMDIAM,11.5,mm,2352,TA42
S0033,T01,LDIAM,11.5,mm,2408,TA43
S0033,,SUMDIAM,11.5,mm,2408,TA43
S0033,T01,LDIAM,11.5,mm,2464,TA44
S0033,,SUMDIAM,11.5,mm,2464,TA44
S0033,T01,LDIAM,11.5,mm,2520,TA45
S0033,,SUMDIAM,11.5,mm,2520,TA45
S0033,T01,LDIAM,11.5,mm,2576,TA46
S0033,,SUMDIAM,11.5,mm,2576,TA46
S0033,T01,LDIAM,11.5,mm,2632,TA47
S0033,,SUMDIAM,11.5,mm,2632,TA47
S0033,T01,LDIAM,11.5,mm,2688,TA48
S0033,,SUMDIAM,11.5,mm,2688,TA48
S0033,T01,LDIAM,11.5,mm,2744,TA49
S0033,,SUMDIAM,11.5,mm,2744,TA49
S0033,T01,LDIAM,11.5,mm,2800,TA50
S0033,,SUMDIAM,11.5,mm,2800,TA50
S0034,T01,LDIAM,16.7,mm,0,BASELINE
S0034,T02,LDIAM,35.3,mm,0,BASELINE
S0034,T03,LDIAM,14.1,mm,0,BASELINE
S0034,T04,LDIAM,14.2,mm,0,BASELINE
S0034,,SUMDIAM,80.3,mm,0,BASELINE
S0034,T01,LDIAM,8.3,mm,56,TA1
S0034,T02,LDIAM,17.6,mm,56,TA1
S0034,T03,LDIAM,7.0,mm,56,TA1
S0034,T04,LDIAM,7.1,mm,56,TA1
S0034,,SUMDIAM,40.1,mm,56,TA1
S0034,T01,LDIAM,0.0,mm,112,TA2
S0034,T02,LDIAM,0.0,mm,112,TA2
S0034,T03,LDIAM,0.0,mm,112,TA2
S0034,T04,LDIAM,0.0,mm,112,TA2
S0034,,SUMDIAM,0.0,mm,112,TA2
S0034,T01,LDIAM,0.0,mm,168,TA3
S0034,T02,LDIAM,0.0,mm,168,TA3
S0034,T03,LDIAM,0.0,mm,168,TA3
S0034,T04,LDIAM,0.0,mm,168,TA3
S0034,,SUMDIAM,0.0,mm,168,TA3
S0034,T01,LDIAM,0.0,mm,224,TA4
S0034,T02,LDIAM,0.0,mm,224,TA4
S0034,T03,LDIAM,0.0,mm,224,TA4
S0034,T04,LDIAM,0.0,mm,224,TA4
S0034,,SUMDIAM,0.0,mm,224,TA4
S0034,T01,LDIAM,0.0,mm,280,TA5
S0034,T02,LDIAM,0.0,mm,280,TA5
S0034,T03,LDIAM,0.0,mm,280,TA5
S0034,T04,LDIAM,0.0,mm,280,TA5
S0034,,SUMDIAM,0.0,mm,280,TA5
S0034,T01,LDIAM,0.0,mm,336,TA6
S0034,T02,LDIAM,0.0,mm,336,TA6
S0034,T03,LDIAM,0.0,mm,336,TA6
S0034,T04,LDIAM,0.0,mm,336,TA6
S0034,,SUMDIAM,0.0,mm,336,TA6
S0034,T01,LDIAM,0.0,mm,392,TA7
S0034,T02,LDIAM,0.0,mm,392,TA7
S0034,T03,LDIAM,0.0,mm,392,TA7
S0034,T04,LDIAM,0.0,mm,392,TA7
S0034,,SUMDIAM,0.0,mm,392,TA7
S0034,T01,LDIAM,0.0,mm,448,TA8
S0034,T02,LDIAM,0.0,mm,448,TA8
S0034,T03,LDIAM,0.0,mm,448,TA8
S0034,T04,LDIAM,0.0,mm,448,TA8
S0034,,SUMDIAM,0.0,mm,448,TA8
S0034,T01,LDIAM,0.0,mm,504,TA9
S0034,T02,LDIAM,0.0,mm,504,TA9
S0034,T03,LDIAM,0.0,mm,504,TA9
S0034,T04,LDIAM,0.0,mm,504,TA9
S0034,,SUMDIAM,0.0,mm,504,TA9
S0034,T01,LDIAM,0.0,mm,560,TA10
S0034,T02,LDIAM,0.0,mm,560,TA10
S0034,T03,LDIAM,0.0,mm,560,TA10
S0034,T04,LDIAM,0.0,mm,560,TA10
S0034,,SUMDIAM,0.0,mm,560,TA10
S0034,T01,LDIAM,0.0,mm,616,TA11
S0034,T02,LDIAM,0.0,mm,616,TA11
S0034,T03,LDIAM,0.0,mm,616,TA11
S0034,T04,LDIAM,0.0,mm,616,TA11
S0034,,SUMDIAM,0.0,mm,616,TA11
S0034,T01,LDIAM,0.0,mm,672,TA12
S0034,T02,LDIAM,0.0,mm,672,TA12
S0034,T03,LDIAM,0.0,mm,672,TA12
S0034,T04,LDIAM,0.0,mm,672,TA12
S0034,,SUMDIAM,0.0,mm,672,TA12
S0034,T01,LDIAM,0.0,mm,728,TA13
S0034,T02,LDIAM,0.0,mm,728,TA13
S0034,T03,LDIAM,0.0,mm,728,TA13
S0034,T04,LDIAM,0.0,mm,728,TA13
S0034,,SUMDIAM,0.0,mm,728,TA13
S0034,T01,LDIAM,0.0,mm,784,TA14
S0034,T02,LDIAM,0.0,mm,784,TA14
S0034,T03,LDIAM,0.0,mm,784,TA14
S0034,T04,LDIAM,0.0,mm,784,TA14
S0034,,SUMDIAM,0.0,mm,784,TA14
S0034,T01,LDIAM,0.0,mm,840,TA15
S0034,T02,LDIAM,0.0,mm,840,TA15
S0034,T03,LDIAM,0.0,mm,840,TA15
S0034,T04,LDIAM,0.0,mm,840,TA15
S0034,,SUMDIAM,0.0,mm,840,TA15
S0034,T01,LDIAM,0.0,mm,896,TA16
S0034,T02,LDIAM,0.0,mm,896,TA16
S0034,T03,LDIAM,0.0,mm,896,TA16
S0034,T04,LDIAM,0.0,mm,896,TA16
S0034,,SUMDIAM,0.0,mm,896,TA16
S0034,T01,LDIAM,0.0,mm,952,TA17
S0034,T02,LDIAM,0.0,mm,952,TA17
S0034,T03,LDIAM,0.0,mm,952,TA17
S0034,T04,LDIAM,0.0,mm,952,TA17
S0034,,SUMDIAM,0.0,mm,952,TA17
S0034,T01,LDIAM,0.0,mm,1008,TA18
S0034,T02,LDIAM,0.0,mm,1008,TA18
S0034,T03,LDIAM,0.0,mm,1008,TA18
S0034,T04,LDIAM,0.0,mm,1008,TA18
S0034,,SUMDIAM,0.0,mm,1008,TA18
S0034,T01,LDIAM,0.0,mm,1064,TA19
S0034,T02,LDIAM,0.0,mm,1064,TA19
S0034,T03,LDIAM,0.0,mm,1064,TA19
S0034,T04,LDIAM,0.0,mm,1064,TA19
S0034,,SUMDIAM,0.0,mm,1064,TA19
S0034,T01,LDIAM,0.0,mm,1120,TA20
S0034,T02,LDIAM,0.0,mm,1120,TA20
S0034,T03,LDIAM,0.0,mm,1120,TA20
S0034,T04,LDIAM,0.0,mm,1120,TA20
S0034,,SUMDIAM,0.0,mm,1120,TA20
S0034,T01,LDIAM,0.0,mm,1176,TA21
S0034,T02,LDIAM,0.0,mm,1176,TA21
S0034,T03,LDIAM,0.0,mm,1176,TA21
S0034,T04,LDIAM,0.0,mm,1176,TA21
S0034,,SUMDIAM,0.0,mm,1176,TA21
S0034,T01,LDIAM,0.0,mm,1232,TA22
S0034,T02,LDIAM,0.0,mm,1232,TA22
S0034,T03,LDIAM,0.0,mm,1232,TA22
S0034,T04,LDIAM,0.0,mm,1232,TA22
S0034,,SUMDIAM,0.0,mm,1232,TA22
S0034,T01,LDIAM,0.0,mm,1288,TA23
S0034,T02,LDIAM,0.0,mm,1288,TA23
S0034,T03,LDIAM,0.0,mm,1288,TA23
S0034,T04,LDIAM,0.0,mm,1288,TA23
S0034,,SUMDIAM,0.0,mm,1288,TA23
S0034,T01,LDIAM,0.0,mm,1344,TA24
S0034,T02,LDIAM,0.0,mm,1344,TA24
S0034,T03,LDIAM,0.0,mm,1344,TA24
S0034,T04,LDIAM,0.0,mm,1344,TA24
S0034,,SUMDIAM,0.0,mm,1344,TA24
S0034,T01,LDIAM,0.0,mm,1400,TA25
S0034,T02,LDIAM,0.0,mm,1400,TA25
S0034,T03,LDIAM,0.0,mm,1400,TA25
S0034,T04,LDIAM,0.0,mm,1400,TA25
S0034,,SUMDIAM,0.0,mm,1400,TA25
S0034,T01,LDIAM,0.0,mm,1456,TA26
S0034,T02,LDIAM,0.0,mm,1456,TA26
S0034,T03,LDIAM,0.0,mm,1456,TA26
S0034,T04,LDIAM,0.0,mm,1456,TA26
S0034,,SUMDIAM,0.0,mm,1456,TA26
S0034,T01,LDIAM,0.0,mm,1512,TA27
S0034,T02,LDIAM,0.0,mm,1512,TA27
S0034,T03,LDIAM,0.0,mm,1512,TA27
S0034,T04,LDIAM,0.0,mm,1512,TA27
S0034,,SUMDIAM,0.0,mm,1512,TA27
S0034,T01,LDIAM,0.0,mm,1568,TA28
S0034,T02,LDIAM,0.0,mm,1568,TA28
S0034,T03,LDIAM,0.0,mm,1568,TA28
S0034,T04,LDIAM,0.0,mm,1568,TA28
S0034,,SUMDIAM,0.0,mm,1568,TA28
S0035,T01,LDIAM,23.8,mm,0,BASELINE
S0035,T02,LDIAM,58.4,mm,0,BASELINE
S0035,T03,LDIAM,52.1,mm,0,BASELINE
S0035,T04,LDIAM,26.6,mm,0,BASELINE
S0035,,SUMDIAM,160.9,mm,0,BASELINE
S0035,T01,LDIAM,13.7,mm,56,TA1
S0035,T02,LDIAM,33.7,mm,56,TA1
S0035,T03,LDIAM,30.0,mm,56,TA1
S0035,T04,LDIAM,15.3,mm,56,TA1
S0035,,SUMDIAM,92.7,mm,56,TA1
S0035,T01,LDIAM,3.6,mm,112,TA2
S0035,T02,LDIAM,8.9,mm,112,TA2
S0035,T03,LDIAM,8.0,mm,112,TA2
S0035,T04,LDIAM,4.1,mm,112,TA2
S0035,,SUMDIAM,24.6,mm,112,TA2
S0035,T01,LDIAM,3.6,mm,168,TA3
S0035,T02,LDIAM,8.9,mm,168,TA3
S0035,T03,LDIAM,8.0,mm,168,TA3
S0035,T04,LDIAM,4.1,mm,168,TA3
S0035,,SUMDIAM,24.6,mm,168,TA3
S0035,T01,LDIAM,3.6,mm,224,TA4
S0035,T02,LDIAM,8.9,mm,224,TA4
S0035,T03,LDIAM,8.0,mm,224,TA4
S0035,T04,LDIAM,4.1,mm,224,TA4
S0035,,SUMDIAM,24.6,mm,224,TA4
S0035,T01,LDIAM,3.6,mm,280,TA5
S0035,T02,LDIAM,8.9,mm,280,TA5
S0035,T03,LDIAM,8.0,mm,280,TA5
S0035,T04,LDIAM,4.1,mm,280,TA5
S0035,,SUMDIAM,24.6,mm,280,TA5
S0035,T01,LDIAM,3.6,mm,336,TA6
S0035,T02,LDIAM,8.9,mm,336,TA6
S0035,T03,LDIAM,8.0,mm,336,TA6
S0035,T04,LDIAM,4.1,mm,336,TA6
S0035,,SUMDIAM,24.6,mm,336,TA6
S0035,T01,LDIAM,3.6,mm,392,TA7
S0035,T02,LDIAM,8.9,mm,392,TA7
S0035,T03,LDIAM,8.0,mm,392,TA7
S0035,T04,LDIAM,4.1,mm,392,TA7
S0035,,SUMDIAM,24.6,mm,392,TA7
S0035,T01,LDIAM,3.6,mm,448,TA8
S0035,T02,LDIAM,8.9,mm,448,TA8
S0035,T03,LDIAM,8.0,mm,448,TA8
S0035,T04,LDIAM,4.1,mm,448,TA8
S0035,,SUMDIAM,24.6,mm,448,TA8
S0035,T01,LDIAM,3.6,mm,504,TA9
S0035,T02,LDIAM,8.9,mm,504,TA9
S0035,T03,LDIAM,8.0,mm,504,TA9
S0035,T04,LDIAM,4.1,mm,504,TA9
S0035,,SUMDIAM,24.6,mm,504,TA9
S0035,T01,LDIAM,3.6,mm,560,TA10
S0035,T02,LDIAM,8.9,mm,560,TA10
S0035,T03,LDIAM,8.0,mm,560,TA10
S0035,T04,LDIAM,4.1,mm,560,TA10
S0035,,SUMDIAM,24.6,mm,560,TA10
S0035,T01,LDIAM,3.6,mm,616,TA11
S0035,T02,LDIAM,8.9,mm,616,TA11
S0035,T03,LDIAM,8.0,mm,616,TA11
S0035,T04,LDIAM,4.1,mm,616,TA11
S0035,,SUMDIAM,24.6,mm,616,TA11
S0035,T01,LDIAM,3.6,mm,672,TA12
S0035,T02,LDIAM,8.9,mm,672,TA12
S0035,T03,LDIAM,8.0,mm,672,TA12
S0035,T04,LDIAM,4.1,mm,672,TA12
S0035,,SUMDIAM,24.6,mm,672,TA12
S0035,T01,LDIAM,3.6,mm,728,TA13
S0035,T02,LDIAM,8.9,mm,728,TA13
S0035,T03,LDIAM,8.0,mm,728,TA13
S0035,T04,LDIAM,4.1,mm,728,TA13
S0035,,SUMDIAM,24.6,mm,728,TA13
S0035,T01,LDIAM,3.6,mm,784,TA14
S0035,T02,LDIAM,8.9,mm,784,TA14
S0035,T03,LDIAM,8.0,mm,784,TA14
S0035,T04,LDIAM,4.1,mm,784,TA14
S0035,,SUMDIAM,24.6,mm,784,TA14
S0035,T01,LDIAM,3.6,mm,840,TA15
S0035,T02,LDIAM,8.9,mm,840,TA15
S0035,T03,LDIAM,8.0,mm,840,TA15
S0035,T04,LDIAM,4.1,mm,840,TA15
S0035,,SUMDIAM,24.6,mm,840,TA15
S0035,T01,LDIAM,3.6,mm,896,TA16
S0035,T02,LDIAM,8.9,mm,896,TA16
S0035,T03,LDIAM,8.0,mm,896,TA16
S0035,T04,LDIAM,4.1,mm,896,TA16
S0035,,SUMDIAM,24.6,mm,896,TA16
S0035,T01,LDIAM,3.6,mm,952,TA17
S0035,T02,LDIAM,8.9,mm,952,TA17
S0035,T03,LDIAM,8.0,mm,952,TA17
S0035,T04,LDIAM,4.1,mm,952,TA17
S0035,,SUMDIAM,24.6,mm,952,TA17
S0035,T01,LDIAM,3.6,mm,1008,TA18
S0035,T02,LDIAM,8.9,mm,1008,TA18
S0035,T03,LDIAM,8.0,mm,1008,TA18
S0035,T04,LDIAM,4.1,mm,1008,TA18
S0035,,SUMDIAM,24.6,mm,1008,TA18
S0035,T01,LDIAM,3.6,mm,1064,TA19
S0035,T02,LDIAM,8.9,mm,1064,TA19
S0035,T03,LDIAM,8.0,mm,1064,TA19
S0035,T04,LDIAM,4.1,mm,1064,TA19
S0035,,SUMDIAM,24.6,mm,1064,TA19
S0036,T01,LDIAM,57.4,mm,0,BASELINE
S0036,T02,LDIAM,38.6,mm,0,BASELINE
S0036,T03,LDIAM,47.1,mm,0,BASELINE
S0036,T04,LDIAM,35.2,mm,0,BASELINE
S0036,T05,LDIAM,59.7,mm,0,BASELINE
S0036,,SUMDIAM,238.0,mm,0,BASELINE
S0036,T01,LDIAM,51.1,mm,56,TA1
S0036,T02,LDIAM,34.3,mm,56,TA1
S0036,T03,LDIAM,41.9,mm,56,TA1
S0036,T04,LDIAM,31.3,mm,56,TA1
S0036,T05,LDIAM,53.1,mm,56,TA1
S0036,,SUMDIAM,211.7,mm,56,TA1
S0036,T01,LDIAM,44.7,mm,112,TA2
S0036,T02,LDIAM,30.1,mm,112,TA2
S0036,T03,LDIAM,36.7,mm,112,TA2
S0036,T04,LDIAM,27.4,mm,112,TA2
S0036,T05,LDIAM,46.5,mm,112,TA2
S0036,,SUMDIAM,185.4,mm,112,TA2
S0036,T01,LDIAM,44.7,mm,168,TA3
S0036,T02,LDIAM,30.1,mm,168,TA3
S0036,T03,LDIAM,36.7,mm,168,TA3
S0036,T04,LDIAM,27.4,mm,168,TA3
S0036,T05,LDIAM,46.5,mm,168,TA3
S0036,,SUMDIAM,185.4,mm,168,TA3
S0036,T01,LDIAM,44.7,mm,224,TA4
S0036,T02,LDIAM,30.1,mm,224,TA4
S0036,T03,LDIAM,36.7,mm,224,TA4
S0036,T04,LDIAM,27.4,mm,224,TA4
S0036,T05,LDIAM,46.5,mm,224,TA4
S0036,,SUMDIAM,185.4,mm,224,TA4
S0036,T01,LDIAM,44.7,mm,280,TA5
S0036,T02,LDIAM,30.1,mm,280,TA5
S0036,T03,LDIAM,36.7,mm,280,TA5
S0036,T04,LDIAM,27.4,mm,280,TA5
S0036,T05,LDIAM,46.5,mm,280,TA5
S0036,,SUMDIAM,185.4,mm,280,TA5
S0036,T01,LDIAM,44.7,mm,336,TA6
S0036,T02,LDIAM,30.1,mm,336,TA6
S0036,T03,LDIAM,36.7,mm,336,TA6
S0036,T04,LDIAM,27.4,mm,336,TA6
S0036,T05,LDIAM,46.5,mm,336,TA6
S0036,,SUMDIAM,185.4,mm,336,TA6
S0036,T01,LDIAM,44.7,mm,392,TA7
S0036,T02,LDIAM,30.1,mm,392,TA7
S0036,T03,LDIAM,36.7,mm,392,TA7
S0036,T04,LDIAM,27.4,mm,392,TA7
S0036,T05,LDIAM,46.5,mm,392,TA7
S0036,,SUMDIAM,185.4,mm,392,TA7
S0036,T01,LDIAM,44.7,mm,448,TA8
S0036,T02,LDIAM,30.1,mm,448,TA8
S0036,T03,LDIAM,36.7,mm,448,TA8
S0036,T04,LDIAM,27.4,mm,448,TA8
S0036,T05,LDIAM,46.5,mm,448,TA8
S0036,,SUMDIAM,185.4,mm,448,TA8
S0036,T01,LDIAM,44.7,mm,504,TA9
S0036,T02,LDIAM,30.1,mm,504,TA9
S0036,T03,LDIAM,36.7,mm,504,TA9
S0036,T04,LDIAM,27.4,mm,504,TA9
S0036,T05,LDIAM,46.5,mm,504,TA9
S0036,,SUMDIAM,185.4,mm,504,TA9
S0036,T01,LDIAM,44.7,mm,560,TA10
S0036,T02,LDIAM,30.1,mm,560,TA10
S0036,T03,LDIAM,36.7,mm,560,TA10
S0036,T04,LDIAM,27.4,mm,560,TA10
S0036,T05,LDIAM,46.5,mm,560,TA10
S0036,,SUMDIAM,185.4,mm,560,TA10
S0036,T01,LDIAM,44.7,mm,616,TA11
S0036,T02,LDIAM,30.1,mm,616,TA11
S0036,T03,LDIAM,36.7,mm,616,TA11
S0036,T04,LDIAM,27.4,mm,616,TA11
S0036,T05,LDIAM,46.5,mm,616,TA11
S0036,,SUMDIAM,185.4,mm,616,TA11
S0036,T01,LDIAM,44.7,mm,672,TA12
S0036,T02,LDIAM,30.1,mm,672,TA12
S0036,T03,LDIAM,36.7,mm,672,TA12
S0036,T04,LDIAM,27.4,mm,672,TA12
S0036,T05,LDIAM,46.5,mm,672,TA12
S0036,,SUMDIAM,185.4,mm,672,TA12
S0036,T01,LDIAM,44.7,mm,728,TA13
S0036,T02,LDIAM,30.1,mm,728,TA13
S0036,T03,LDIAM,36.7,mm,728,TA13
S0036,T04,LDIAM,27.4,mm,728,TA13
S0036,T05,LDIAM,46.5,mm,728,TA13
S0036,,SUMDIAM,185.4,mm,728,TA13
S0036,T01,LDIAM,44.7,mm,784,TA14
S0036,T02,LDIAM,30.1,mm,784,TA14
S0036,T03,LDIAM,36.7,mm,784,TA14
S0036,T04,LDIAM,27.4,mm,784,TA14
S0036,T05,LDIAM,46.5,mm,784,TA14
S0036,,SUMDIAM,185.4,mm,784,TA14
S0036,T01,LDIAM,44.7,mm,840,TA15
S0036,T02,LDIAM,30.1,mm,840,TA15
S0036,T03,LDIAM,36.7,mm,840,TA15
S0036,T04,LDIAM,27.4,mm,840,TA15
S0036,T05,LDIAM,46.5,mm,840,TA15
S0036,,SUMDIAM,185.4,mm,840,TA15
S0036,T01,LDIAM,44.7,mm,896,TA16
S0036,T02,LDIAM,30.1,mm,896,TA16
S0036,T03,LDIAM,36.7,mm,896,TA16
S0036,T04,LDIAM,27.4,mm,896,TA16
S0036,T05,LDIAM,46.5,mm,896,TA16
S0036,,SUMDIAM,185.4,mm,896,TA16
S0036,T01,LDIAM,44.7,mm,952,TA17
S0036,T02,LDIAM,30.1,mm,952,TA17
S0036,T03,LDIAM,36.7,mm,952,TA17
S0036,T04,LDIAM,27.4,mm,952,TA17
S0036,T05,LDIAM,46.5,mm,952,TA17
S0036,,SUMDIAM,185.4,mm,952,TA17
S0036,T01,LDIAM,56.5,mm,1008,TA18
S0036,T02,LDIAM,38.0,mm,1008,TA18
S0036,T03,LDIAM,46.4,mm,1008,TA18
S0036,T04,LDIAM,34.7,mm,1008,TA18
S0036,T05,LDIAM,58.8,mm,1008,TA18
S0036,,SUMDIAM,234.4,mm,1008,TA18
S0037,T01,LDIAM,15.8,mm,0,BASELINE
S0037,T02,LDIAM,52.5,mm,0,BASELINE
S0037,T03,LDIAM,10.4,mm,0,BASELINE
S0037,T04,LDIAM,28.0,mm,0,BASELINE
S0037,T05,LDIAM,52.3,mm,0,BASELINE
S0037,,SUMDIAM,159.0,mm,0,BASELINE
S0037,T01,LDIAM,16.6,mm,56,TA1
S0037,T02,LDIAM,55.1,mm,56,TA1
S0037,T03,LDIAM,10.9,mm,56,TA1
S0037,T04,LDIAM,29.4,mm,56,TA1
S0037,T05,LDIAM,54.9,mm,56,TA1
S0037,,SUMDIAM,166.8,mm,56,TA1
S0037,T01,LDIAM,17.3,mm,112,TA2
S0037,T02,LDIAM,57.6,mm,112,TA2
S0037,T03,LDIAM,11.4,mm,112,TA2
S0037,T04,LDIAM,30.7,mm,112,TA2
S0037,T05,LDIAM,57.4,mm,112,TA2
S0037,,SUMDIAM,174.5,mm,112,TA2
S0037,T01,LDIAM,17.3,mm,168,TA3
S0037,T02,LDIAM,57.6,mm,168,TA3
S0037,T03,LDIAM,11.4,mm,168,TA3
S0037,T04,LDIAM,30.7,mm,168,TA3
S0037,T05,LDIAM,57.4,mm,168,TA3
S0037,,SUMDIAM,174.5,mm,168,TA3
S0038,T01,LDIAM,28.8,mm,0,BASELINE
S0038,T02,LDIAM,38.4,mm,0,BASELINE
S0038,T03,LDIAM,50.3,mm,0,BASELINE
S0038,T04,LDIAM,17.5,mm,0,BASELINE
S0038,T05,LDIAM,33.8,mm,0,BASELINE
S0038,,SUMDIAM,168.8,mm,0,BASELINE
S0038,T01,LDIAM,29.7,mm,56,TA1
S0038,T02,LDIAM,39.6,mm,56,TA1
S0038,T03,LDIAM,51.9,mm,56,TA1
S0038,T04,LDIAM,18.1,mm,56,TA1
S0038,T05,LDIAM,34.9,mm,56,TA1
S0038,,SUMDIAM,174.2,mm,56,TA1
S0038,T01,LDIAM,30.6,mm,112,TA2
S0038,T02,LDIAM,40.9,mm,112,TA2
S0038,T03,LDIAM,53.5,mm,112,TA2
S0038,T04,LDIAM,18.6,mm,112,TA2
S0038,T05,LDIAM,36.0,mm,112,TA2
S0038,,SUMDIAM,179.6,mm,112,TA2
S0039,T01,LDIAM,47.7,mm,0,BASELINE
S0039,T02,LDIAM,56.9,mm,0,BASELINE
S0039,T03,LDIAM,31.4,mm,0,BASELINE
S0039,T04,LDIAM,42.2,mm,0,BASELINE
S0039,,SUMDIAM,178.2,mm,0,BASELINE
S0039,T01,LDIAM,40.1,mm,56,TA1
S0039,T02,LDIAM,47.8,mm,56,TA1
S0039,T03,LDIAM,26.4,mm,56,TA1
S0039,T04,LDIAM,35.4,mm,56,TA1
S0039,,SUMDIAM,149.6,mm,56,TA1
S0039,T01,LDIAM,32.4,mm,112,TA2
S0039,T02,LDIAM,38.7,mm,112,TA2
S0039,T03,LDIAM,21.3,mm,112,TA2
S0039,T04,LDIAM,28.7,mm,112,TA2
S0039,,SUMDIAM,121.1,mm,112,TA2
S0039,T01,LDIAM,32.4,mm,168,TA3
S0039,T02,LDIAM,38.7,mm,168,TA3
S0039,T03,LDIAM,21.3,mm,168,TA3
S0039,T04,LDIAM,28.7,mm,168,TA3
S0039,,SUMDIAM,121.1,mm,168,TA3
S0039,T01,LDIAM,32.4,mm,224,TA4
S0039,T02,LDIAM,38.7,mm,224,TA4
S0039,T03,LDIAM,21.3,mm,224,TA4
S0039,T04,LDIAM,28.7,mm,224,TA4
S0039,,SUMDIAM,121.1,mm,224,TA4
S0039,T01,LDIAM,32.4,mm,280,TA5
S0039,T02,LDIAM,38.7,mm,280,TA5
S0039,T03,LDIAM,21.3,mm,280,TA5
S0039,T04,LDIAM,28.7,mm,280,TA5
S0039,,SUMDIAM,121.1,mm,280,TA5
S0039,T01,LDIAM,32.4,mm,336,TA6
S0039,T02,LDIAM,38.7,mm,336,TA6
S0039,T03,LDIAM,21.3,mm,336,TA6
S0039,T04,LDIAM,28.7,mm,336,TA6
S0039,,SUMDIAM,121.1,mm,336,TA6
S0039,T01,LDIAM,32.4,mm,392,TA7
S0039,T02,LDIAM,38.7,mm,392,TA7
S0039,T03,LDIAM,21.3,mm,392,TA7
S0039,T04,LDIAM,28.7,mm,392,TA7
S0039,,SUMDIAM,121.1,mm,392,TA7
S0039,T01,LDIAM,32.4,mm,448,TA8
S0039,T02,LDIAM,38.7,mm,448,TA8
S0039,T03,LDIAM,21.3,mm,448,TA8
S0039,T04,LDIAM,28.7,mm,448,TA8
S0039,,SUMDIAM,121.1,mm,448,TA8
S0039,T01,LDIAM,32.4,mm,504,TA9
S0039,T02,LDIAM,38.7,mm,504,TA9
S0039,T03,LDIAM,21.3,mm,504,TA9
S0039,T04,LDIAM,28.7,mm,504,TA9
S0039,,SUMDIAM,121.1,mm,504,TA9
S0039,T01,LDIAM,32.4,mm,560,TA10
S0039,T02,LDIAM,38.7,mm,560,TA10
S0039,T03,LDIAM,21.3,mm,560,TA10
S0039,T04,LDIAM,28.7,mm,560,TA10
S0039,,SUMDIAM,121.1,mm,560,TA10
S0039,T01,LDIAM,32.4,mm,616,TA11
S0039,T02,LDIAM,38.7,mm,616,TA11
S0039,T03,LDIAM,21.3,mm,616,TA11
S0039,T04,LDIAM,28.7,mm,616,TA11
S0039,,SUMDIAM,121.1,mm,616,TA11
S0039,T01,LDIAM,32.4,mm,672,TA12
S0039,T02,LDIAM,38.7,mm,672,TA12
S0039,T03,LDIAM,21.3,mm,672,TA12
S0039,T04,LDIAM,28.7,mm,672,TA12
S0039,,SUMDIAM,121.1,mm,672,TA12
S0039,T01,LDIAM,32.4,mm,728,TA13
S0039,T02,LDIAM,38.7,mm,728,TA13
S0039,T03,LDIAM,21.3,mm,728,TA13
S0039,T04,LDIAM,28.7,mm,728,TA13
S0039,,SUMDIAM,121.1,mm,728,TA13
S0039,T01,LDIAM,32.4,mm,784,TA14
S0039,T02,LDIAM,38.7,mm,784,TA14
S0039,T03,LDIAM,21.3,mm,784,TA14
S0039,T04,LDIAM,28.7,mm,784,TA14
S0039,,SUMDIAM,121.1,mm,784,TA14
S0039,T01,LDIAM,32.4,mm,840,TA15
S0039,T02,LDIAM,38.7,mm,840,TA15
S0039,T03,LDIAM,21.3,mm,840,TA15
S0039,T04,LDIAM,28.7,mm,840,TA15
S0039,,SUMDIAM,121.1,mm,840,TA15
S0039,T01,LDIAM,32.4,mm,896,TA16
S0039,T02,LDIAM,38.7,mm,896,TA16
S0039,T03,LDIAM,21.3,mm,896,TA16
S0039,T04,LDIAM,28.7,mm,896,TA16
S0039,,SUMDIAM,121.1,mm,896,TA16
S0039,T01,LDIAM,32.4,mm,952,TA17
S0039,T02,LDIAM,38.7,mm,952,TA17
S0039,T03,LDIAM,21.3,mm,952,TA17
S0039,T04,LDIAM,28.7,mm,952,TA17
S0039,,SUMDIAM,121.1,mm,952,TA17
S0039,T01,LDIAM,32.4,mm,1008,TA18
S0039,T02,LDIAM,38.7,mm,1008,TA18
S0039,T03,LDIAM,21.3,mm,1008,TA18
S0039,T04,LDIAM,28.7,mm,1008,TA18
S0039,,SUMDIAM,121.1,mm,1008,TA18
S0039,T01,LDIAM,32.4,mm,1064,TA19
S0039,T02,LDIAM,38.7,mm,1064,TA19
S0039,T03,LDIAM,21.3,mm,1064,TA19
S0039,T04,LDIAM,28.7,mm,1064,TA19
S0039,,SUMDIAM,121.1,mm,1064,TA19
S0039,T01,LDIAM,32.4,mm,1120,TA20
S0039,T02,LDIAM,38.7,mm,1120,TA20
S0039,T03,LDIAM,21.3,mm,1120,TA20
S0039,T04,LDIAM,28.7,mm,1120,TA20
S0039,,SUMDIAM,121.1,mm,1120,TA20
S0039,T01,LDIAM,32.4,mm,1176,TA21
S0039,T02,LDIAM,38.7,mm,1176,TA21
S0039,T03,LDIAM,21.3,mm,1176,TA21
S0039,T04,LDIAM,28.7,mm,1176,TA21
S0039,,SUMDIAM,121.1,mm,1176,TA21
S0039,T01,LDIAM,32.4,mm,1232,TA22
S0039,T02,LDIAM,38.7,mm,1232,TA22
S0039,T03,LDIAM,21.3,mm,1232,TA22
S0039,T04,LDIAM,28.7,mm,1232,TA22
S0039,,SUMDIAM,121.1,mm,1232,TA22
S0039,T01,LDIAM,32.4,mm,1288,TA23
S0039,T02,LDIAM,38.7,mm,1288,TA23
S0039,T03,LDIAM,21.3,mm,1288,TA23
S0039,T04,LDIAM,28.7,mm,1288,TA23
S0039,,SUMDIAM,121.1,mm,1288,TA23
S0039,T01,LDIAM,32.4,mm,1344,TA24
S0039,T02,LDIAM,38.7,mm,1344,TA24
S0039,T03,LDIAM,21.3,mm,1344,TA24
S0039,T04,LDIAM,28.7,mm,1344,TA24
S0039,,SUMDIAM,121.1,mm,1344,TA24
S0039,T01,LDIAM,32.4,mm,1400,TA25
S0039,T02,LDIAM,38.7,mm,1400,TA25
S0039,T03,LDIAM,21.3,mm,1400,TA25
S0039,T04,LDIAM,28.7,mm,1400,TA25
S0039,,SUMDIAM,121.1,mm,1400,TA25
S0039,T01,LDIAM,32.4,mm,1456,TA26
S0039,T02,LDIAM,38.7,mm,1456,TA26
S0039,T03,LDIAM,21.3,mm,1456,TA26
S0039,T04,LDIAM,28.7,mm,1456,TA26
S0039,,SUMDIAM,121.1,mm,1456,TA26
S0039,T01,LDIAM,32.4,mm,1512,TA27
S0039,T02,LDIAM,38.7,mm,1512,TA27
S0039,T03,LDIAM,21.3,mm,1512,TA27
S0039,T04,LDIAM,28.7,mm,1512,TA27
S0039,,SUMDIAM,121.1,mm,1512,TA27
S0039,T01,LDIAM,32.4,mm,1568,TA28
S0039,T02,LDIAM,38.7,mm,1568,TA28
S0039,T03,LDIAM,21.3,mm,1568,TA28
S0039,T04,LDIAM,28.7,mm,1568,TA28
S0039,,SUMDIAM,121.1,mm,1568,TA28
S0039,T01,LDIAM,32.4,mm,1624,TA29
S0039,T02,LDIAM,38.7,mm,1624,TA29
S0039,T03,LDIAM,21.3,mm,1624,TA29
S0039,T04,LDIAM,28.7,mm,1624,TA29
S0039,,SUMDIAM,121.1,mm,1624,TA29
S0040,T01,LDIAM,19.0,mm,0,BASELINE
S0040,T02,LDIAM,17.1,mm,0,BASELINE
S0040,T03,LDIAM,47.8,mm,0,BASELINE
S0040,T04,LDIAM,39.1,mm,0,BASELINE
S0040,T05,LDIAM,55.1,mm,0,BASELINE
S0040,,SUMDIAM,178.1,mm,0,BASELINE
S0040,T01,LDIAM,12.3,mm,56,TA1
S0040,T02,LDIAM,11.1,mm,56,TA1
S0040,T03,LDIAM,31.1,mm,56,TA1
S0040,T04,LDIAM,25.4,mm,56,TA1
S0040,T05,LDIAM,35.8,mm,56,TA1
S0040,,SUMDIAM,115.7,mm,56,TA1
S0040,T01,LDIAM,5.7,mm,112,TA2
S0040,T02,LDIAM,5.1,mm,112,TA2
S0040,T03,LDIAM,14.3,mm,112,TA2
S0040,T04,LDIAM,11.7,mm,112,TA2
S0040,T05,LDIAM,16.5,mm,112,TA2
S0040,,SUMDIAM,53.3,mm,112,TA2
S0041,T01,LDIAM,51.2,mm,0,BASELINE
S0041,T02,LDIAM,53.8,mm,0,BASELINE
S0041,T03,LDIAM,57.8,mm,0,BASELINE
S0041,,SUMDIAM,162.8,mm,0,BASELINE
S0041,T01,LDIAM,44.5,mm,56,TA1
S0041,T02,LDIAM,46.8,mm,56,TA1
S0041,T03,LDIAM,50.3,mm,56,TA1
S0041,,SUMDIAM,141.6,mm,56,TA1
S0041,T01,LDIAM,37.9,mm,112,TA2
S0041,T02,LDIAM,39.8,mm,112,TA2
S0041,T03,LDIAM,42.8,mm,112,TA2
S0041,,SUMDIAM,120.5,mm,112,TA2
S0041,T01,LDIAM,37.9,mm,168,TA3
S0041,T02,LDIAM,39.8,mm,168,TA3
S0041,T03,LDIAM,42.8,mm,168,TA3
S0041,,SUMDIAM,120.5,mm,168,TA3
S0041,T01,LDIAM,37.9,mm,224,TA4
S0041,T02,LDIAM,39.8,mm,224,TA4
S0041,T03,LDIAM,42.8,mm,224,TA4
S0041,,SUMDIAM,120.5,mm,224,TA4
S0042,T01,LDIAM,11.2,mm,0,BASELINE
S0042,T02,LDIAM,39.2,mm,0,BASELINE
S0042,T03,LDIAM,32.7,mm,0,BASELINE
S0042,T04,LDIAM,34.9,mm,0,BASELINE
S0042,,SUMDIAM,118.0,mm,0,BASELINE
S0042,T01,LDIAM,9.0,mm,56,TA1
S0042,T02,LDIAM,31.6,mm,56,TA1
S0042,T03,LDIAM,26.4,mm,56,TA1
S0042,T04,LDIAM,28.2,mm,56,TA1
S0042,,SUMDIAM,95.3,mm,56,TA1
S0042,T01,LDIAM,6.9,mm,112,TA2
S0042,T02,LDIAM,24.1,mm,112,TA2
S0042,T03,LDIAM,20.1,mm,112,TA2
S0042,T04,LDIAM,21.5,mm,112,TA2
S0042,,SUMDIAM,72.5,mm,112,TA2
S0042,T01,LDIAM,6.9,mm,168,TA3
S0042,T02,LDIAM,24.1,mm,168,TA3
S0042,T03,LDIAM,20.1,mm,168,TA3
S0042,T04,LDIAM,21.5,mm,168,TA3
S0042,,SUMDIAM,72.5,mm,168,TA3
S0042,T01,LDIAM,6.9,mm,224,TA4
S0042,T02,LDIAM,24.1,mm,224,TA4
S0042,T03,LDIAM,20.1,mm,224,TA4
S0042,T04,LDIAM,21.5,mm,224,TA4
S0042,,SUMDIAM,72.5,mm,224,TA4
S0042,T01,LDIAM,6.9,mm,280,TA5
S0042,T02,LDIAM,24.1,mm,280,TA5
S0042,T03,LDIAM,20.1,mm,280,TA5
S0042,T04,LDIAM,21.5,mm,280,TA5
S0042,,SUMDIAM,72.5,mm,280,TA5
S0042,T01,LDIAM,6.9,mm,336,TA6
S0042,T02,LDIAM,24.1,mm,336,TA6
S0042,T03,LDIAM,20.1,mm,336,TA6
S0042,T04,LDIAM,21.5,mm,336,TA6
S0042,,SUMDIAM,72.5,mm,336,TA6
S0042,T01,LDIAM,6.9,mm,392,TA7
S0042,T02,LDIAM,24.1,mm,392,TA7
S0042,T03,LDIAM,20.1,mm,392,TA7
S0042,T04,LDIAM,21.5,mm,392,TA7
S0042,,SUMDIAM,72.5,mm,392,TA7
S0042,T01,LDIAM,6.9,mm,448,TA8
S0042,T02,LDIAM,24.1,mm,448,TA8
S0042,T03,LDIAM,20.1,mm,448,TA8
S0042,T04,LDIAM,21.5,mm,448,TA8
S0042,,SUMDIAM,72.5,mm,448,TA8
S0042,T01,LDIAM,6.9,mm,504,TA9
S0042,T02,LDIAM,24.1,mm,504,TA9
S0042,T03,LDIAM,20.1,mm,504,TA9
S0042,T04,LDIAM,21.5,mm,504,TA9
S0042,,SUMDIAM,72.5,mm,504,TA9
S0042,T01,LDIAM,6.9,mm,560,TA10
S0042,T02,LDIAM,24.1,mm,560,TA10
S0042,T03,LDIAM,20.1,mm,560,TA10
S0042,T04,LDIAM,21.5,mm,560,TA10
S0042,,SUMDIAM,72.5,mm,560,TA10
S0042,T01,LDIAM,6.9,mm,616,TA11
S0042,T02,LDIAM,24.1,mm,616,TA11
S0042,T03,LDIAM,20.1,mm,616,TA11
S0042,T04,LDIAM,21.5,mm,616,TA11
S0042,,SUMDIAM,72.5,mm,616,TA11
S0042,T01,LDIAM,6.9,mm,672,TA12
S0042,T02,LDIAM,24.1,mm,672,TA12
S0042,T03,LDIAM,20.1,mm,672,TA12
S0042,T04,LDIAM,21.5,mm,672,TA12
S0042,,SUMDIAM,72.5,mm,672,TA12
S0042,T01,LDIAM,6.9,mm,728,TA13
S0042,T02,LDIAM,24.1,mm,728,TA13
S0042,T03,LDIAM,20.1,mm,728,TA13
S0042,T04,LDIAM,21.5,mm,728,TA13
S0042,,SUMDIAM,72.5,mm,728,TA13
S0042,T01,LDIAM,6.9,mm,784,TA14
S0042,T02,LDIAM,24.1,mm,784,TA14
S0042,T03,LDIAM,20.1,mm,784,TA14
S0042,T04,LDIAM,21.5,mm,784,TA14
S0042,,SUMDIAM,72.5,mm,784,TA14
S0042,T01,LDIAM,6.9,mm,840,TA15
S0042,T02,LDIAM,24.1,mm,840,TA15
S0042,T03,LDIAM,20.1,mm,840,TA15
S0042,T04,LDIAM,21.5,mm,840,TA15
S0042,,SUMDIAM,72.5,mm,840,TA15
S0042,T01,LDIAM,6.9,mm,896,TA16
S0042,T02,LDIAM,24.1,mm,896,TA16
S0042,T03,LDIAM,20.1,mm,896,TA16
S0042,T04,LDIAM,21.5,mm,896,TA16
S0042,,SUMDIAM,72.5,mm,896,TA16
S0042,T01,LDIAM,6.9,mm,952,TA17
S0042,T02,LDIAM,24.1,mm,952,TA17
S0042,T03,LDIAM,20.1,mm,952,TA17
S0042,T04,LDIAM,21.5,mm,952,TA17
S0042,,SUMDIAM,72.5,mm,952,TA17
S0042,T01,LDIAM,6.9,mm,1008,TA18
S0042,T02,LDIAM,24.1,mm,1008,TA18
S0042,T03,LDIAM,20.1,mm,1008,TA18
S0042,T04,LDIAM,21.5,mm,1008,TA18
S0042,,SUMDIAM,72.5,mm,1008,TA18
S0042,T01,LDIAM,6.9,mm,1064,TA19
S0042,T02,LDIAM,24.1,mm,1064,TA19
S0042,T03,LDIAM,20.1,mm,1064,TA19
S0042,T04,LDIAM,21.5,mm,1064,TA19
S0042,,SUMDIAM,72.5,mm,1064,TA19
S0042,T01,LDIAM,6.9,mm,1120,TA20
S0042,T02,LDIAM,24.1,mm,1120,TA20
S0042,T03,LDIAM,20.1,mm,1120,TA20
S0042,T04,LDIAM,21.5,mm,1120,TA20
S0042,,SUMDIAM,72.5,mm,1120,TA20
S0042,T01,LDIAM,6.9,mm,1176,TA21
S0042,T02,LDIAM,24.1,mm,1176,TA21
S0042,T03,LDIAM,20.1,mm,1176,TA21
S0042,T04,LDIAM,21.5,mm,1176,TA21
S0042,,SUMDIAM,72.5,mm,1176,TA21
S0042,T01,LDIAM,6.9,mm,1232,TA22
S0042,T02,LDIAM,24.1,mm,1232,TA22
S0042,T03,LDIAM,20.1,mm,1232,TA22
S0042,T04,LDIAM,21.5,mm,1232,TA22
S0042,,SUMDIAM,72.5,mm,1232,TA22
S0042,T01,LDIAM,6.9,mm,1288,TA23
S0042,T02,LDIAM,24.1,mm,1288,TA23
S0042,T03,LDIAM,20.1,mm,1288,TA23
S0042,T04,LDIAM,21.5,mm,1288,TA23
S0042,,SUMDIAM,72.5,mm,1288,TA23
S0042,T01,LDIAM,6.9,mm,1344,TA24
S0042,T02,LDIAM,24.1,mm,1344,TA24
S0042,T03,LDIAM,20.1,mm,1344,TA24
S0042,T04,LDIAM,21.5,mm,1344,TA24
S0042,,SUMDIAM,72.5,mm,1344,TA24
S0042,T01,LDIAM,6.9,mm,1400,TA25
S0042,T02,LDIAM,24.1,mm,1400,TA25
S0042,T03,LDIAM,20.1,mm,1400,TA25
S0042,T04,LDIAM,21.5,mm,1400,TA25
S0042,,SUMDIAM,72.5,mm,1400,TA25
S0042,T01,LDIAM,6.9,mm,1456,TA26
S0042,T02,LDIAM,24.1,mm,1456,TA26
S0042,T03,LDIAM,20.1,mm,1456,TA26
S0042,T04,LDIAM,21.5,mm,1456,TA26
S0042,,SUMDIAM,72.5,mm,1456,TA26
S0043,T01,LDIAM,46.6,mm,0,BASELINE
S0043,T02,LDIAM,36.6,mm,0,BASELINE
S0043,T03,LDIAM,58.3,mm,0,BASELINE
S0043,T04,LDIAM,13.7,mm,0,BASELINE
S0043,T05,LDIAM,35.6,mm,0,BASELINE
S0043,,SUMDIAM,190.8,mm,0,BASELINE
S0043,T01,LDIAM,50.1,mm,56,TA1
S0043,T02,LDIAM,39.4,mm,56,TA1
S0043,T03,LDIAM,62.7,mm,56,TA1
S0043,T04,LDIAM,14.7,mm,56,TA1
S0043,T05,LDIAM,38.3,mm,56,TA1
S0043,,SUMDIAM,205.2,mm,56,TA1
S0043,T01,LDIAM,53.6,mm,112,TA2
S0043,T02,LDIAM,42.1,mm,112,TA2
S0043,T03,LDIAM,67.1,mm,112,TA2
S0043,T04,LDIAM,15.8,mm,112,TA2
S0043,T05,LDIAM,41.0,mm,112,TA2
S0043,,SUMDIAM,219.6,mm,112,TA2
S0043,T01,LDIAM,53.6,mm,168,TA3
S0043,T02,LDIAM,42.1,mm,168,TA3
S0043,T03,LDIAM,67.1,mm,168,TA3
S0043,T04,LDIAM,15.8,mm,168,TA3
S0043,T05,LDIAM,41.0,mm,168,TA3
S0043,,SUMDIAM,219.6,mm,168,TA3
S0043,T01,LDIAM,53.6,mm,224,TA4
S0043,T02,LDIAM,42.1,mm,224,TA4
S0043,T03,LDIAM,67.1,mm,224,TA4
S0043,T04,LDIAM,15.8,mm,224,TA4
S0043,T05,LDIAM,41.0,mm,224,TA4
S0043,,SUMDIAM,219.6,mm,224,TA4
S0043,T01,LDIAM,58.2,mm,280,TA5
S0043,T02,LDIAM,45.8,mm,280,TA5
S0043,T03,LDIAM,72.9,mm,280,TA5
S0043,T04,LDIAM,17.1,mm,280,TA5
S0043,T05,LDIAM,44.5,mm,280,TA5
S0043,,SUMDIAM,238.5,mm,280,TA5
S0044,T01,LDIAM,43.7,mm,0,BASELINE
S0044,,SUMDIAM,43.7,mm,0,BASELINE
S0044,T01,LDIAM,47.3,mm,56,TA1
S0044,,SUMDIAM,47.3,mm,56,TA1
S0044,T01,LDIAM,50.8,mm,112,TA2
S0044,,SUMDIAM,50.8,mm,112,TA2
S0044,T01,LDIAM,54.6,mm,168,TA3
S0044,,SUMDIAM,54.6,mm,168,TA3
S0045,T01,LDIAM,51.5,mm,0,BASELINE
S0045,,SUMDIAM,51.5,mm,0,BASELINE
S0045,T01,LDIAM,51.6,mm,56,TA1
S0045,,SUMDIAM,51.6,mm,56,TA1
S0045,T01,LDIAM,51.6,mm,112,TA2
S0045,,SUMDIAM,51.6,mm,112,TA2
S0045,T01,LDIAM,51.6,mm,168,TA3
S0045,,SUMDIAM,51.6,mm,168,TA3
S0045,T01,LDIAM,51.6,mm,224,TA4
S0045,,SUMDIAM,51.6,mm,224,TA4
S0046,T01,LDIAM,39.3,mm,0,BASELINE
S0046,T02,LDIAM,54.8,mm,0,BASELINE
S0046,T03,LDIAM,47.5,mm,0,BASELINE
S0046,,SUMDIAM,141.6,mm,0,BASELINE
S0046,T01,LDIAM,41.8,mm,56,TA1
S0046,T02,LDIAM,58.3,mm,56,TA1
S0046,T03,LDIAM,50.5,mm,56,TA1
S0046,,SUMDIAM,150.6,mm,56,TA1
S0046,T01,LDIAM,44.3,mm,112,TA2
S0046,T02,LDIAM,61.8,mm,112,TA2
S0046,T03,LDIAM,53.5,mm,112,TA2
S0046,,SUMDIAM,159.6,mm,112,TA2
S0046,T01,LDIAM,44.3,mm,168,TA3
S0046,T02,LDIAM,61.8,mm,168,TA3
S0046,T03,LDIAM,53.5,mm,168,TA3
S0046,,SUMDIAM,159.6,mm,168,TA3
S0046,T01,LDIAM,44.3,mm,224,TA4
S0046,T02,LDIAM,61.8,mm,224,TA4
S0046,T03,LDIAM,53.5,mm,224,TA4
S0046,,SUMDIAM,159.6,mm,224,TA4
S0046,T01,LDIAM,44.3,mm,280,TA5
S0046,T02,LDIAM,61.8,mm,280,TA5
S0046,T03,LDIAM,53.5,mm,280,TA5
S0046,,SUMDIAM,159.6,mm,280,TA5
S0046,T01,LDIAM,44.3,mm,336,TA6
S0046,T02,LDIAM,61.8,mm,336,TA6
S0046,T03,LDIAM,53.5,mm,336,TA6
S0046,,SUMDIAM,159.6,mm,336,TA6
S0046,T01,LDIAM,44.3,mm,392,TA7
S0046,T02,LDIAM,61.8,mm,392,TA7
S0046,T03,LDIAM,53.5,mm,392,TA7
S0046,,SUMDIAM,159.6,mm,392,TA7
S0046,T01,LDIAM,44.3,mm,448,TA8
S0046,T02,LDIAM,61.8,mm,448,TA8
S0046,T03,LDIAM,53.5,mm,448,TA8
S0046,,SUMDIAM,159.6,mm,448,TA8
S0046,T01,LDIAM,44.3,mm,504,TA9
S0046,T02,LDIAM,61.8,mm,504,TA9
S0046,T03,LDIAM,53.5,mm,504,TA9
S0046,,SUMDIAM,159.6,mm,504,TA9
S0046,T01,LDIAM,44.3,mm,560,TA10
S0046,T02,LDIAM,61.8,mm,560,TA10
S0046,T03,LDIAM,53.5,mm,560,TA10
S0046,,SUMDIAM,159.6,mm,560,TA10
S0046,T01,LDIAM,44.3,mm,616,TA11
S0046,T02,LDIAM,61.8,mm,616,TA11
S0046,T03,LDIAM,53.5,mm,616,TA11
S0046,,SUMDIAM,159.6,mm,616,TA11
S0046,T01,LDIAM,44.3,mm,672,TA12
S0046,T02,LDIAM,61.8,mm,672,TA12
S0046,T03,LDIAM,53.5,mm,672,TA12
S0046,,SUMDIAM,159.6,mm,672,TA12
S0046,T01,LDIAM,44.3,mm,728,TA13
S0046,T02,LDIAM,61.8,mm,728,TA13
S0046,T03,LDIAM,53.5,mm,728,TA13
S0046,,SUMDIAM,159.6,mm,728,TA13
S0046,T01,LDIAM,44.3,mm,784,TA14
S0046,T02,LDIAM,61.8,mm,784,TA14
S0046,T03,LDIAM,53.5,mm,784,TA14
S0046,,SUMDIAM,159.6,mm,784,TA14
S0046,T01,LDIAM,44.3,mm,840,TA15
S0046,T02,LDIAM,61.8,mm,840,TA15
S0046,T03,LDIAM,53.5,mm,840,TA15
S0046,,SUMDIAM,159.6,mm,840,TA15
S0046,T01,LDIAM,44.3,mm,896,TA16
S0046,T02,LDIAM,61.8,mm,896,TA16
S0046,T03,LDIAM,53.5,mm,896,TA16
S0046,,SUMDIAM,159.6,mm,896,TA16
S0046,T01,LDIAM,44.3,mm,952,TA17
S0046,T02,LDIAM,61.8,mm,952,TA17
S0046,T03,LDIAM,53.5,mm,952,TA17
S0046,,SUMDIAM,159.6,mm,952,TA17
S0047,T01,LDIAM,28.3,mm,0,BASELINE
S0047,,SUMDIAM,28.3,mm,0,BASELINE
S0047,T01,LDIAM,15.5,mm,56,TA1
S0047,,SUMDIAM,15.5,mm,56,TA1
S0047,T01,LDIAM,21.5,mm,112,TA2
S0047,,SUMDIAM,21.5,mm,112,TA2
S0048,T01,LDIAM,41.0,mm,0,BASELINE
S0048,T02,LDIAM,45.8,mm,0,BASELINE
S0048,T03,LDIAM,24.3,mm,0,BASELINE
S0048,,SUMDIAM,111.1,mm,0,BASELINE
S0048,T01,LDIAM,42.9,mm,56,TA1
S0048,T02,LDIAM,47.9,mm,56,TA1
S0048,T03,LDIAM,25.4,mm,56,TA1
S0048,,SUMDIAM,116.3,mm,56,TA1
S0048,T01,LDIAM,44.8,mm,112,TA2
S0048,T02,LDIAM,50.1,mm,112,TA2
S0048,T03,LDIAM,26.6,mm,112,TA2
S0048,,SUMDIAM,121.5,mm,112,TA2
S0048,T01,LDIAM,51.2,mm,168,TA3
S0048,T02,LDIAM,57.2,mm,168,TA3
S0048,T03,LDIAM,30.4,mm,168,TA3
S0048,,SUMDIAM,138.9,mm,168,TA3
S0049,T01,LDIAM,48.0,mm,0,BASELINE
S0049,T02,LDIAM,47.9,mm,0,BASELINE
S0049,,SUMDIAM,95.9,mm,0,BASELINE
S0049,T01,LDIAM,49.2,mm,56,TA1
S0049,T02,LDIAM,49.1,mm,56,TA1
S0049,,SUMDIAM,98.3,mm,56,TA1
S0049,T01,LDIAM,60.0,mm,112,TA2
S0049,T02,LDIAM,59.9,mm,112,TA2
S0049,,SUMDIAM,119.9,mm,112,TA2
S0050,T01,LDIAM,56.5,mm,0,BASELINE
S0050,T02,LDIAM,25.0,mm,0,BASELINE
S0050,T03,LDIAM,31.5,mm,0,BASELINE
S0050,T04,LDIAM,11.9,mm,0,BASELINE
S0050,,SUMDIAM,124.9,mm,0,BASELINE
S0050,T01,LDIAM,52.1,mm,56,TA1
S0050,T02,LDIAM,23.0,mm,56,TA1
S0050,T03,LDIAM,29.0,mm,56,TA1
S0050,T04,LDIAM,11.0,mm,56,TA1
S0050,,SUMDIAM,115.1,mm,56,TA1
S0050,T01,LDIAM,47.7,mm,112,TA2
S0050,T02,LDIAM,21.1,mm,112,TA2
S0050,T03,LDIAM,26.6,mm,112,TA2
S0050,T04,LDIAM,10.0,mm,112,TA2
S0050,,SUMDIAM,105.3,mm,112,TA2
S0050,T01,LDIAM,47.7,mm,168,TA3
S0050,T02,LDIAM,21.1,mm,168,TA3
S0050,T03,LDIAM,26.6,mm,168,TA3
S0050,T04,LDIAM,10.0,mm,168,TA3
S0050,,SUMDIAM,105.3,mm,168,TA3
S0050,T01,LDIAM,47.7,mm,224,TA4
S0050,T02,LDIAM,21.1,mm,224,TA4
S0050,T03,LDIAM,26.6,mm,224,TA4
S0050,T04,LDIAM,10.0,mm,224,TA4
S0050,,SUMDIAM,105.3,mm,224,TA4
S0050,T01,LDIAM,47.7,mm,280,TA5
S0050,T02,LDIAM,21.1,mm,280,TA5
S0050,T03,LDIAM,26.6,mm,280,TA5
S0050,T04,LDIAM,10.0,mm,280,TA5
S0050,,SUMDIAM,105.3,mm,280,TA5
S0050,T01,LDIAM,47.7,mm,336,TA6
S0050,T02,LDIAM,21.1,mm,336,TA6
S0050,T03,LDIAM,26.6,mm,336,TA6
S0050,T04,LDIAM,10.0,mm,336,TA6
S0050,,SUMDIAM,105.3,mm,336,TA6
S0050,T01,LDIAM,47.7,mm,392,TA7
S0050,T02,LDIAM,21.1,mm,392,TA7
S0050,T03,LDIAM,26.6,mm,392,TA7
S0050,T04,LDIAM,10.0,mm,392,TA7
S0050,,SUMDIAM,105.3,mm,392,TA7
S0050,T01,LDIAM,47.7,mm,448,TA8
S0050,T02,LDIAM,21.1,mm,448,TA8
S0050,T03,LDIAM,26.6,mm,448,TA8
S0050,T04,LDIAM,10.0,mm,448,TA8
S0050,,SUMDIAM,105.3,mm,448,TA8
S0050,T01,LDIAM,47.7,mm,504,TA9
S0050,T02,LDIAM,21.1,mm,504,TA9
S0050,T03,LDIAM,26.6,mm,504,TA9
S0050,T04,LDIAM,10.0,mm,504,TA9
S0050,,SUMDIAM,105.3,mm,504,TA9
S0050,T01,LDIAM,47.7,mm,560,TA10
S0050,T02,LDIAM,21.1,mm,560,TA10
S0050,T03,LDIAM,26.6,mm,560,TA10
S0050,T04,LDIAM,10.0,mm,560,TA10
S0050,,SUMDIAM,105.3,mm,560,TA10
S0050,T01,LDIAM,47.7,mm,616,TA11
S0050,T02,LDIAM,21.1,mm,616,TA11
S0050,T03,LDIAM,26.6,mm,616,TA11
S0050,T04,LDIAM,10.0,mm,616,TA11
S0050,,SUMDIAM,105.3,mm,616,TA11
S0050,T01,LDIAM,47.7,mm,672,TA12
S0050,T02,LDIAM,21.1,mm,672,TA12
S0050,T03,LDIAM,26.6,mm,672,TA12
S0050,T04,LDIAM,10.0,mm,672,TA12
S0050,,SUMDIAM,105.3,mm,672,TA12
S0050,T01,LDIAM,47.7,mm,728,TA13
S0050,T02,LDIAM,21.1,mm,728,TA13
S0050,T03,LDIAM,26.6,mm,728,TA13
S0050,T04,LDIAM,10.0,mm,728,TA13
S0050,,SUMDIAM,105.3,mm,728,TA13
S0050,T01,LDIAM,47.7,mm,784,TA14
S0050,T02,LDIAM,21.1,mm,784,TA14
S0050,T03,LDIAM,26.6,mm,784,TA14
S0050,T04,LDIAM,10.0,mm,784,TA14
S0050,,SUMDIAM,105.3,mm,784,TA14
S0050,T01,LDIAM,47.7,mm,840,TA15
S0050,T02,LDIAM,21.1,mm,840,TA15
S0050,T03,LDIAM,26.6,mm,840,TA15
S0050,T04,LDIAM,10.0,mm,840,TA15
S0050,,SUMDIAM,105.3,mm,840,TA15
S0050,T01,LDIAM,47.7,mm,896,TA16
S0050,T02,LDIAM,21.1,mm,896,TA16
S0050,T03,LDIAM,26.6,mm,896,TA16
S0050,T04,LDIAM,10.0,mm,896,TA16
S0050,,SUMDIAM,105.3,mm,896,TA16
S0050,T01,LDIAM,47.7,mm,952,TA17
S0050,T02,LDIAM,21.1,mm,952,TA17
S0050,T03,LDIAM,26.6,mm,952,TA17
S0050,T04,LDIAM,10.0,mm,952,TA17
S0050,,SUMDIAM,105.3,mm,952,TA17
S0050,T01,LDIAM,47.7,mm,1008,TA18
S0050,T02,LDIAM,21.1,mm,1008,TA18
S0050,T03,LDIAM,26.6,mm,1008,TA18
S0050,T04,LDIAM,10.0,mm,1008,TA18
S0050,,SUMDIAM,105.3,mm,1008,TA18
S0050,T01,LDIAM,47.7,mm,1064,TA19
S0050,T02,LDIAM,21.1,mm,1064,TA19
S0050,T03,LDIAM,26.6,mm,1064,TA19
S0050,T04,LDIAM,10.0,mm,1064,TA19
S0050,,SUMDIAM,105.3,mm,1064,TA19
S0050,T01,LDIAM,47.7,mm,1120,TA20
S0050,T02,LDIAM,21.1,mm,1120,TA20
S0050,T03,LDIAM,26.6,mm,1120,TA20
S0050,T04,LDIAM,10.0,mm,1120,TA20
S0050,,SUMDIAM,105.3,mm,1120,TA20
S0050,T01,LDIAM,47.7,mm,1176,TA21
S0050,T02,LDIAM,21.1,mm,1176,TA21
S0050,T03,LDIAM,26.6,mm,1176,TA21
S0050,T04,LDIAM,10.0,mm,1176,TA21
S0050,,SUMDIAM,105.3,mm,1176,TA21
S0050,T01,LDIAM,47.7,mm,1232,TA22
S0050,T02,LDIAM,21.1,mm,1232,TA22
S0050,T03,LDIAM,26.6,mm,1232,TA22
S0050,T04,LDIAM,10.0,mm,1232,TA22
S0050,,SUMDIAM,105.3,mm,1232,TA22
S0050,T01,LDIAM,47.7,mm,1288,TA23
S0050,T02,LDIAM,21.1,mm,1288,TA23
S0050,T03,LDIAM,26.6,mm,1288,TA23
S0050,T04,LDIAM,10.0,mm,1288,TA23
S0050,,SUMDIAM,105.3,mm,1288,TA23
S0050,T01,LDIAM,47.7,mm,1344,TA24
S0050,T02,LDIAM,21.1,mm,1344,TA24
S0050,T03,LDIAM,26.6,mm,1344,TA24
S0050,T04,LDIAM,10.0,mm,1344,TA24
S0050,,SUMDIAM,105.3,mm,1344,TA24
S0050,T01,LDIAM,47.7,mm,1400,TA25
S0050,T02,LDIAM,21.1,mm,1400,TA25
S0050,T03,LDIAM,26.6,mm,1400,TA25
S0050,T04,LDIAM,10.0,mm,1400,TA25
S0050,,SUMDIAM,105.3,mm,1400,TA25
S0050,T01,LDIAM,47.7,mm,1456,TA26
S0050,T02,LDIAM,21.1,mm,1456,TA26
S0050,T03,LDIAM,26.6,mm,1456,TA26
S0050,T04,LDIAM,10.0,mm,1456,TA26
S0050,,SUMDIAM,105.3,mm,1456,TA26
S0051,T01,LDIAM,54.6,mm,0,BASELINE
S0051,T02,LDIAM,53.4,mm,0,BASELINE
S0051,T03,LDIAM,41.2,mm,0,BASELINE
S0051,,SUMDIAM,149.2,mm,0,BASELINE
S0051,T01,LDIAM,30.3,mm,56,TA1
S0051,T02,LDIAM,29.6,mm,56,TA1
S0051,T03,LDIAM,22.9,mm,56,TA1
S0051,,SUMDIAM,82.8,mm,56,TA1
S0051,T01,LDIAM,6.0,mm,112,TA2
S0051,T02,LDIAM,5.9,mm,112,TA2
S0051,T03,LDIAM,4.5,mm,112,TA2
S0051,,SUMDIAM,16.4,mm,112,TA2
S0051,T01,LDIAM,6.0,mm,168,TA3
S0051,T02,LDIAM,5.9,mm,168,TA3
S0051,T03,LDIAM,4.5,mm,168,TA3
S0051,,SUMDIAM,16.4,mm,168,TA3
S0051,T01,LDIAM,6.0,mm,224,TA4
S0051,T02,LDIAM,5.9,mm,224,TA4
S0051,T03,LDIAM,4.5,mm,224,TA4
S0051,,SUMDIAM,16.4,mm,224,TA4
S0051,T01,LDIAM,6.0,mm,280,TA5
S0051,T02,LDIAM,5.9,mm,280,TA5
S0051,T03,LDIAM,4.5,mm,280,TA5
S0051,,SUMDIAM,16.4,mm,280,TA5
S0051,T01,LDIAM,6.0,mm,336,TA6
S0051,T02,LDIAM,5.9,mm,336,TA6
S0051,T03,LDIAM,4.5,mm,336,TA6
S0051,,SUMDIAM,16.4,mm,336,TA6
S0051,T01,LDIAM,6.0,mm,392,TA7
S0051,T02,LDIAM,5.9,mm,392,TA7
S0051,T03,LDIAM,4.5,mm,392,TA7
S0051,,SUMDIAM,16.4,mm,392,TA7
S0051,T01,LDIAM,6.0,mm,448,TA8
S0051,T02,LDIAM,5.9,mm,448,TA8
S0051,T03,LDIAM,4.5,mm,448,TA8
S0051,,SUMDIAM,16.4,mm,448,TA8
S0051,T01,LDIAM,6.0,mm,504,TA9
S0051,T02,LDIAM,5.9,mm,504,TA9
S0051,T03,LDIAM,4.5,mm,504,TA9
S0051,,SUMDIAM,16.4,mm,504,TA9
S0051,T01,LDIAM,6.0,mm,560,TA10
S0051,T02,LDIAM,5.9,mm,560,TA10
S0051,T03,LDIAM,4.5,mm,560,TA10
S0051,,SUMDIAM,16.4,mm,560,TA10
S0051,T01,LDIAM,6.0,mm,616,TA11
S0051,T02,LDIAM,5.9,mm,616,TA11
S0051,T03,LDIAM,4.5,mm,616,TA11
S0051,,SUMDIAM,16.4,mm,616,TA11
S0051,T01,LDIAM,6.0,mm,672,TA12
S0051,T02,LDIAM,5.9,mm,672,TA12
S0051,T03,LDIAM,4.5,mm,672,TA12
S0051,,SUMDIAM,16.4,mm,672,TA12
S0051,T01,LDIAM,6.0,mm,728,TA13
S0051,T02,LDIAM,5.9,mm,728,TA13
S0051,T03,LDIAM,4.5,mm,728,TA13
S0051,,SUMDIAM,16.4,mm,728,TA13
S0051,T01,LDIAM,6.0,mm,784,TA14
S0051,T02,LDIAM,5.9,mm,784,TA14
S0051,T03,LDIAM,4.5,mm,784,TA14
S0051,,SUMDIAM,16.4,mm,784,TA14
S0051,T01,LDIAM,6.0,mm,840,TA15
S0051,T02,LDIAM,5.9,mm,840,TA15
S0051,T03,LDIAM,4.5,mm,840,TA15
S0051,,SUMDIAM,16.4,mm,840,TA15
S0051,T01,LDIAM,6.0,mm,896,TA16
S0051,T02,LDIAM,5.9,mm,896,TA16
S0051,T03,LDIAM,4.5,mm,896,TA16
S0051,,SUMDIAM,16.4,mm,896,TA16
S0052,T01,LDIAM,24.7,mm,0,BASELINE
S0052,T02,LDIAM,56.7,mm,0,BASELINE
S0052,,SUMDIAM,81.4,mm,0,BASELINE
S0052,T01,LDIAM,23.3,mm,56,TA1
S0052,T02,LDIAM,53.6,mm,56,TA1
S0052,,SUMDIAM,76.9,mm,56,TA1
S0052,T01,LDIAM,22.0,mm,112,TA2
S0052,T02,LDIAM,50.4,mm,112,TA2
S0052,,SUMDIAM,72.4,mm,112,TA2
S0052,T01,LDIAM,22.0,mm,168,TA3
S0052,T02,LDIAM,50.4,mm,168,TA3
S0052,,SUMDIAM,72.4,mm,168,TA3
S0052,T01,LDIAM,22.0,mm,224,TA4
S0052,T02,LDIAM,50.4,mm,224,TA4
S0052,,SUMDIAM,72.4,mm,224,TA4
S0052,T01,LDIAM,22.0,mm,280,TA5
S0052,T02,LDIAM,50.4,mm,280,TA5
S0052,,SUMDIAM,72.4,mm,280,TA5
S0052,T01,LDIAM,22.0,mm,336,TA6
S0052,T02,LDIAM,50.4,mm,336,TA6
S0052,,SUMDIAM,72.4,mm,336,TA6
S0052,T01,LDIAM,22.0,mm,392,TA7
S0052,T02,LDIAM,50.4,mm,392,TA7
S0052,,SUMDIAM,72.4,mm,392,TA7
S0052,T01,LDIAM,22.0,mm,448,TA8
S0052,T02,LDIAM,50.4,mm,448,TA8
S0052,,SUMDIAM,72.4,mm,448,TA8
S0052,T01,LDIAM,22.0,mm,504,TA9
S0052,T02,LDIAM,50.4,mm,504,TA9
S0052,,SUMDIAM,72.4,mm,504,TA9
S0052,T01,LDIAM,22.0,mm,560,TA10
S0052,T02,LDIAM,50.4,mm,560,TA10
S0052,,SUMDIAM,72.4,mm,560,TA10
S0052,T01,LDIAM,27.6,mm,616,TA11
S0052,T02,LDIAM,63.4,mm,616,TA11
S0052,,SUMDIAM,91.0,mm,616,TA11
S0053,T01,LDIAM,18.1,mm,0,BASELINE
S0053,,SUMDIAM,18.1,mm,0,BASELINE
S0053,T01,LDIAM,18.0,mm,56,TA1
S0053,,SUMDIAM,18.0,mm,56,TA1
S0053,T01,LDIAM,17.9,mm,112,TA2
S0053,,SUMDIAM,17.9,mm,112,TA2
S0053,T01,LDIAM,17.9,mm,168,TA3
S0053,,SUMDIAM,17.9,mm,168,TA3
S0053,T01,LDIAM,17.9,mm,224,TA4
S0053,,SUMDIAM,17.9,mm,224,TA4
S0053,T01,LDIAM,17.9,mm,280,TA5
S0053,,SUMDIAM,17.9,mm,280,TA5
S0053,T01,LDIAM,23.9,mm,336,TA6
S0053,,SUMDIAM,23.9,mm,336,TA6
S0054,T01,LDIAM,15.9,mm,0,BASELINE
S0054,T02,LDIAM,37.3,mm,0,BASELINE
S0054,T03,LDIAM,34.4,mm,0,BASELINE
S0054,T04,LDIAM,22.6,mm,0,BASELINE
S0054,T05,LDIAM,51.8,mm,0,BASELINE
S0054,,SUMDIAM,162.0,mm,0,BASELINE
S0054,T01,LDIAM,11.9,mm,56,TA1
S0054,T02,LDIAM,28.0,mm,56,TA1
S0054,T03,LDIAM,25.8,mm,56,TA1
S0054,T04,LDIAM,17.0,mm,56,TA1
S0054,T05,LDIAM,38.9,mm,56,TA1
S0054,,SUMDIAM,121.7,mm,56,TA1
S0055,T01,LDIAM,20.5,mm,0,BASELINE
S0055,T02,LDIAM,26.0,mm,0,BASELINE
S0055,,SUMDIAM,46.5,mm,0,BASELINE
S0055,T01,LDIAM,10.2,mm,56,TA1
S0055,T02,LDIAM,13.0,mm,56,TA1
S0055,,SUMDIAM,23.2,mm,56,TA1
S0055,T01,LDIAM,0.0,mm,112,TA2
S0055,T02,LDIAM,0.0,mm,112,TA2
S0055,,SUMDIAM,0.0,mm,112,TA2
S0055,T01,LDIAM,0.0,mm,168,TA3
S0055,T02,LDIAM,0.0,mm,168,TA3
S0055,,SUMDIAM,0.0,mm,168,TA3
S0055,T01,LDIAM,0.0,mm,224,TA4
S0055,T02,LDIAM,0.0,mm,224,TA4
S0055,,SUMDIAM,0.0,mm,224,TA4
S0055,T01,LDIAM,0.0,mm,280,TA5
S0055,T02,LDIAM,0.0,mm,280,TA5
S0055,,SUMDIAM,0.0,mm,280,TA5
S0055,T01,LDIAM,0.0,mm,336,TA6
S0055,T02,LDIAM,0.0,mm,336,TA6
S0055,,SUMDIAM,0.0,mm,336,TA6
S0055,T01,LDIAM,0.0,mm,392,TA7
S0055,T02,LDIAM,0.0,mm,392,TA7
S0055,,SUMDIAM,0.0,mm,392,TA7
S0055,T01,LDIAM,0.0,mm,448,TA8
S0055,T02,LDIAM,0.0,mm,448,TA8
S0055,,SUMDIAM,0.0,mm,448,TA8
S0055,T01,LDIAM,0.0,mm,504,TA9
S0055,T02,LDIAM,0.0,mm,504,TA9
S0055,,SUMDIAM,0.0,mm,504,TA9
S0055,T01,LDIAM,0.0,mm,560,TA10
S0055,T02,LDIAM,0.0,mm,560,TA10
S0055,,SUMDIAM,0.0,mm,560,TA10
S0055,T01,LDIAM,0.0,mm,616,TA11
S0055,T02,LDIAM,0.0,mm,616,TA11
S0055,,SUMDIAM,0.0,mm,616,TA11
S0055,T01,LDIAM,0.0,mm,672,TA12
S0055,T02,LDIAM,0.0,mm,672,TA12
S0055,,SUMDIAM,0.0,mm,672,TA12
S0055,T01,LDIAM,0.0,mm,728,TA13
S0055,T02,LDIAM,0.0,mm,728,TA13
S0055,,SUMDIAM,0.0,mm,728,TA13
S0055,T01,LDIAM,2.6,mm,784,TA14
S0055,T02,LDIAM,3.4,mm,784,TA14
S0055,,SUMDIAM,6.0,mm,784,TA14
S0055,T01,LDIAM,2.6,mm,840,TA15
S0055,T02,LDIAM,3.4,mm,840,TA15
S0055,,SUMDIAM,6.0,mm,840,TA15
S0056,T01,LDIAM,56.6,mm,0,BASELINE
S0056,T02,LDIAM,33.1,mm,0,BASELINE
S0056,,SUMDIAM,89.7,mm,0,BASELINE
S0056,T01,LDIAM,70.8,mm,56,TA1
S0056,T02,LDIAM,41.4,mm,56,TA1
S0056,,SUMDIAM,112.1,mm,56,TA1
S0057,T01,LDIAM,28.3,mm,0,BASELINE
S0057,T02,LDIAM,34.3,mm,0,BASELINE
S0057,T03,LDIAM,54.2,mm,0,BASELINE
S0057,,SUMDIAM,116.8,mm,0,BASELINE
S0057,T01,LDIAM,25.5,mm,56,TA1
S0057,T02,LDIAM,30.9,mm,56,TA1
S0057,T03,LDIAM,48.8,mm,56,TA1
S0057,,SUMDIAM,105.2,mm,56,TA1
S0057,T01,LDIAM,32.0,mm,112,TA2
S0057,T02,LDIAM,38.8,mm,112,TA2
S0057,T03,LDIAM,61.3,mm,112,TA2
S0057,,SUMDIAM,132.1,mm,112,TA2
S0058,T01,LDIAM,27.7,mm,0,BASELINE
S0058,T02,LDIAM,48.4,mm,0,BASELINE
S0058,T03,LDIAM,55.1,mm,0,BASELINE
S0058,T04,LDIAM,22.8,mm,0,BASELINE
S0058,T05,LDIAM,35.6,mm,0,BASELINE
S0058,,SUMDIAM,189.6,mm,0,BASELINE
S0058,T01,LDIAM,30.2,mm,56,TA1
S0058,T02,LDIAM,52.8,mm,56,TA1
S0058,T03,LDIAM,60.2,mm,56,TA1
S0058,T04,LDIAM,24.9,mm,56,TA1
S0058,T05,LDIAM,38.9,mm,56,TA1
S0058,,SUMDIAM,207.0,mm,56,TA1
S0058,T01,LDIAM,34.6,mm,112,TA2
S0058,T02,LDIAM,60.5,mm,112,TA2
S0058,T03,LDIAM,68.9,mm,112,TA2
S0058,T04,LDIAM,28.5,mm,112,TA2
S0058,T05,LDIAM,44.5,mm,112,TA2
S0058,,SUMDIAM,237.0,mm,112,TA2
S0059,T01,LDIAM,30.5,mm,0,BASELINE
S0059,,SUMDIAM,30.5,mm,0,BASELINE
S0059,T01,LDIAM,38.1,mm,56,TA1
S0059,,SUMDIAM,38.1,mm,56,TA1
S0060,T01,LDIAM,23.1,mm,0,BASELINE
S0060,T02,LDIAM,32.9,mm,0,BASELINE
S0060,T03,LDIAM,45.6,mm,0,BASELINE
S0060,T04,LDIAM,50.8,mm,0,BASELINE
S0060,T05,LDIAM,50.2,mm,0,BASELINE
S0060,,SUMDIAM,202.6,mm,0,BASELINE
S0060,T01,LDIAM,23.6,mm,56,TA1
S0060,T02,LDIAM,33.6,mm,56,TA1
S0060,T03,LDIAM,46.6,mm,56,TA1
S0060,T04,LDIAM,51.9,mm,56,TA1
S0060,T05,LDIAM,51.3,mm,56,TA1
S0060,,SUMDIAM,206.9,mm,56,TA1
S0060,T01,LDIAM,24.1,mm,112,TA2
S0060,T02,LDIAM,34.3,mm,112,TA2
S0060,T03,LDIAM,47.5,mm,112,TA2
S0060,T04,LDIAM,53.0,mm,112,TA2
S0060,T05,LDIAM,52.3,mm,112,TA2
S0060,,SUMDIAM,211.2,mm,112,TA2
S0060,T01,LDIAM,24.1,mm,168,TA3
S0060,T02,LDIAM,34.3,mm,168,TA3
S0060,T03,LDIAM,47.5,mm,168,TA3
S0060,T04,LDIAM,53.0,mm,168,TA3
S0060,T05,LDIAM,52.3,mm,168,TA3
S0060,,SUMDIAM,211.2,mm,168,TA3
S0060,T01,LDIAM,24.1,mm,224,TA4
S0060,T02,LDIAM,34.3,mm,224,TA4
S0060,T03,LDIAM,47.5,mm,224,TA4
S0060,T04,LDIAM,53.0,mm,224,TA4
S0060,T05,LDIAM,52.3,mm,224,TA4
S0060,,SUMDIAM,211.2,mm,224,TA4
S0060,T01,LDIAM,24.1,mm,280,TA5
S0060,T02,LDIAM,34.3,mm,280,TA5
S0060,T03,LDIAM,47.5,mm,280,TA5
S0060,T04,LDIAM,53.0,mm,280,TA5
S0060,T05,LDIAM,52.3,mm,280,TA5
S0060,,SUMDIAM,211.2,mm,280,TA5
S0060,T01,LDIAM,24.1,mm,336,TA6
S0060,T02,LDIAM,34.3,mm,336,TA6
S0060,T03,LDIAM,47.5,mm,336,TA6
S0060,T04,LDIAM,53.0,mm,336,TA6
S0060,T05,LDIAM,52.3,mm,336,TA6
S0060,,SUMDIAM,211.2,mm,336,TA6
S0060,T01,LDIAM,24.1,mm,392,TA7
S0060,T02,LDIAM,34.3,mm,392,TA7
S0060,T03,LDIAM,47.5,mm,392,TA7
S0060,T04,LDIAM,53.0,mm,392,TA7
S0060,T05,LDIAM,52.3,mm,392,TA7
S0060,,SUMDIAM,211.2,mm,392,TA7
S0060,T01,LDIAM,24.1,mm,448,TA8
S0060,T02,LDIAM,34.3,mm,448,TA8
S0060,T03,LDIAM,47.5,mm,448,TA8
S0060,T04,LDIAM,53.0,mm,448,TA8
S0060,T05,LDIAM,52.3,mm,448,TA8
S0060,,SUMDIAM,211.2,mm,448,TA8
S0060,T01,LDIAM,24.1,mm,504,TA9
S0060,T02,LDIAM,34.3,mm,504,TA9
S0060,T03,LDIAM,47.5,mm,504,TA9
S0060,T04,LDIAM,53.0,mm,504,TA9
S0060,T05,LDIAM,52.3,mm,504,TA9
S0060,,SUMDIAM,211.2,mm,504,TA9
S0060,T01,LDIAM,24.1,mm,560,TA10
S0060,T02,LDIAM,34.3,mm,560,TA10
S0060,T03,LDIAM,47.5,mm,560,TA10
S0060,T04,LDIAM,53.0,mm,560,TA10
S0060,T05,LDIAM,52.3,mm,560,TA10
S0060,,SUMDIAM,211.2,mm,560,TA10
S0060,T01,LDIAM,24.1,mm,616,TA11
S0060,T02,LDIAM,34.3,mm,616,TA11
S0060,T03,LDIAM,47.5,mm,616,TA11
S0060,T04,LDIAM,53.0,mm,616,TA11
S0060,T05,LDIAM,52.3,mm,616,TA11
S0060,,SUMDIAM,211.2,mm,616,TA11
S0060,T01,LDIAM,24.1,mm,672,TA12
S0060,T02,LDIAM,34.3,mm,672,TA12
S0060,T03,LDIAM,47.5,mm,672,TA12
S0060,T04,LDIAM,53.0,mm,672,TA12
S0060,T05,LDIAM,52.3,mm,672,TA12
S0060,,SUMDIAM,211.2,mm,672,TA12
S0060,T01,LDIAM,24.1,mm,728,TA13
S0060,T02,LDIAM,34.3,mm,728,TA13
S0060,T03,LDIAM,47.5,mm,728,TA13
S0060,T04,LDIAM,53.0,mm,728,TA13
S0060,T05,LDIAM,52.3,mm,728,TA13
S0060,,SUMDIAM,211.2,mm,728,TA13
S0061,T01,LDIAM,60.0,mm,0,BASELINE
S0061,T02,LDIAM,12.4,mm,0,BASELINE
S0061,T03,LDIAM,20.6,mm,0,BASELINE
S0061,,SUMDIAM,93.0,mm,0,BASELINE
S0061,T01,LDIAM,35.3,mm,56,TA1
S0061,T02,LDIAM,7.3,mm,56,TA1
S0061,T03,LDIAM,12.1,mm,56,TA1
S0061,,SUMDIAM,54.8,mm,56,TA1
S0061,T01,LDIAM,10.7,mm,112,TA2
S0061,T02,LDIAM,2.2,mm,112,TA2
S0061,T03,LDIAM,3.7,mm,112,TA2
S0061,,SUMDIAM,16.5,mm,112,TA2
S0061,T01,LDIAM,10.7,mm,168,TA3
S0061,T02,LDIAM,2.2,mm,168,TA3
S0061,T03,LDIAM,3.7,mm,168,TA3
S0061,,SUMDIAM,16.5,mm,168,TA3
S0061,T01,LDIAM,10.7,mm,224,TA4
S0061,T02,LDIAM,2.2,mm,224,TA4
S0061,T03,LDIAM,3.7,mm,224,TA4
S0061,,SUMDIAM,16.5,mm,224,TA4
S0061,T01,LDIAM,10.7,mm,280,TA5
S0061,T02,LDIAM,2.2,mm,280,TA5
S0061,T03,LDIAM,3.7,mm,280,TA5
S0061,,SUMDIAM,16.5,mm,280,TA5
S0061,T01,LDIAM,10.7,mm,336,TA6
S0061,T02,LDIAM,2.2,mm,336,TA6
S0061,T03,LDIAM,3.7,mm,336,TA6
S0061,,SUMDIAM,16.5,mm,336,TA6
S0061,T01,LDIAM,15.8,mm,392,TA7
S0061,T02,LDIAM,3.3,mm,392,TA7
S0061,T03,LDIAM,5.4,mm,392,TA7
S0061,,SUMDIAM,24.5,mm,392,TA7
S0061,T01,LDIAM,15.8,mm,448,TA8
S0061,T02,LDIAM,3.3,mm,448,TA8
S0061,T03,LDIAM,5.4,mm,448,TA8
S0061,,SUMDIAM,24.5,mm,448,TA8
S0061,T01,LDIAM,15.8,mm,504,TA9
S0061,T02,LDIAM,3.3,mm,504,TA9
S0061,T03,LDIAM,5.4,mm,504,TA9
S0061,,SUMDIAM,24.5,mm,504,TA9
S0061,T01,LDIAM,15.8,mm,560,TA10
S0061,T02,LDIAM,3.3,mm,560,TA10
S0061,T03,LDIAM,5.4,mm,560,TA10
S0061,,SUMDIAM,24.5,mm,560,TA10
S0061,T01,LDIAM,15.8,mm,616,TA11
S0061,T02,LDIAM,3.3,mm,616,TA11
S0061,T03,LDIAM,5.4,mm,616,TA11
S0061,,SUMDIAM,24.5,mm,616,TA11
S0061,T01,LDIAM,15.8,mm,672,TA12
S0061,T02,LDIAM,3.3,mm,672,TA12
S0061,T03,LDIAM,5.4,mm,672,TA12
S0061,,SUMDIAM,24.5,mm,672,TA12
S0061,T01,LDIAM,15.8,mm,728,TA13
S0061,T02,LDIAM,3.3,mm,728,TA13
S0061,T03,LDIAM,5.4,mm,728,TA13
S0061,,SUMDIAM,24.5,mm,728,TA13
S0061,T01,LDIAM,15.8,mm,784,TA14
S0061,T02,LDIAM,3.3,mm,784,TA14
S0061,T03,LDIAM,5.4,mm,784,TA14
S0061,,SUMDIAM,24.5,mm,784,TA14
S0061,T01,LDIAM,15.8,mm,840,TA15
S0061,T02,LDIAM,3.3,mm,840,TA15
S0061,T03,LDIAM,5.4,mm,840,TA15
S0061,,SUMDIAM,24.5,mm,840,TA15
S0061,T01,LDIAM,15.8,mm,896,TA16
S0061,T02,LDIAM,3.3,mm,896,TA16
S0061,T03,LDIAM,5.4,mm,896,TA16
S0061,,SUMDIAM,24.5,mm,896,TA16
S0061,T01,LDIAM,15.8,mm,952,TA17
S0061,T02,LDIAM,3.3,mm,952,TA17
S0061,T03,LDIAM,5.4,mm,952,TA17
S0061,,SUMDIAM,24.5,mm,952,TA17
S0061,T01,LDIAM,15.8,mm,1008,TA18
S0061,T02,LDIAM,3.3,mm,1008,TA18
S0061,T03,LDIAM,5.4,mm,1008,TA18
S0061,,SUMDIAM,24.5,mm,1008,TA18
S0061,T01,LDIAM,15.8,mm,1064,TA19
S0061,T02,LDIAM,3.3,mm,1064,TA19
S0061,T03,LDIAM,5.4,mm,1064,TA19
S0061,,SUMDIAM,24.5,mm,1064,TA19
S0061,T01,LDIAM,15.8,mm,1120,TA20
S0061,T02,LDIAM,3.3,mm,1120,TA20
S0061,T03,LDIAM,5.4,mm,1120,TA20
S0061,,SUMDIAM,24.5,mm,1120,TA20
S0061,T01,LDIAM,15.8,mm,1176,TA21
S0061,T02,LDIAM,3.3,mm,1176,TA21
S0061,T03,LDIAM,5.4,mm,1176,TA21
S0061,,SUMDIAM,24.5,mm,1176,TA21
S0061,T01,LDIAM,15.8,mm,1232,TA22
S0061,T02,LDIAM,3.3,mm,1232,TA22
S0061,T03,LDIAM,5.4,mm,1232,TA22
S0061,,SUMDIAM,24.5,mm,1232,TA22
S0061,T01,LDIAM,15.8,mm,1288,TA23
S0061,T02,LDIAM,3.3,mm,1288,TA23
S0061,T03,LDIAM,5.4,mm,1288,TA23
S0061,,SUMDIAM,24.5,mm,1288,TA23
S0061,T01,LDIAM,15.8,mm,1344,TA24
S0061,T02,LDIAM,3.3,mm,1344,TA24
S0061,T03,LDIAM,5.4,mm,1344,TA24
S0061,,SUMDIAM,24.5,mm,1344,TA24
S0061,T01,LDIAM,15.8,mm,1400,TA25
S0061,T02,LDIAM,3.3,mm,1400,TA25
S0061,T03,LDIAM,5.4,mm,1400,TA25
S0061,,SUMDIAM,24.5,mm,1400,TA25
S0061,T01,LDIAM,15.8,mm,1456,TA26
S0061,T02,LDIAM,3.3,mm,1456,TA26
S0061,T03,LDIAM,5.4,mm,1456,TA26
S0061,,SUMDIAM,24.5,mm,1456,TA26
S0061,T01,LDIAM,15.8,mm,1512,TA27
S0061,T02,LDIAM,3.3,mm,1512,TA27
S0061,T03,LDIAM,5.4,mm,1512,TA27
S0061,,SUMDIAM,24.5,mm,1512,TA27
S0061,T01,LDIAM,15.8,mm,1568,TA28
S0061,T02,LDIAM,3.3,mm,1568,TA28
S0061,T03,LDIAM,5.4,mm,1568,TA28
S0061,,SUMDIAM,24.5,mm,1568,TA28
S0061,T01,LDIAM,15.8,mm,1624,TA29
S0061,T02,LDIAM,3.3,mm,1624,TA29
S0061,T03,LDIAM,5.4,mm,1624,TA29
S0061,,SUMDIAM,24.5,mm,1624,TA29
S0061,T01,LDIAM,15.8,mm,1680,TA30
S0061,T02,LDIAM,3.3,mm,1680,TA30
S0061,T03,LDIAM,5.4,mm,1680,TA30
S0061,,SUMDIAM,24.5,mm,1680,TA30
S0061,T01,LDIAM,15.8,mm,1736,TA31
S0061,T02,LDIAM,3.3,mm,1736,TA31
S0061,T03,LDIAM,5.4,mm,1736,TA31
S0061,,SUMDIAM,24.5,mm,1736,TA31
S0061,T01,LDIAM,15.8,mm,1792,TA32
S0061,T02,LDIAM,3.3,mm,1792,TA32
S0061,T03,LDIAM,5.4,mm,1792,TA32
S0061,,SUMDIAM,24.5,mm,1792,TA32
S0061,T01,LDIAM,15.8,mm,1848,TA33
S0061,T02,LDIAM,3.3,mm,1848,TA33
S0061,T03,LDIAM,5.4,mm,1848,TA33
S0061,,SUMDIAM,24.5,mm,1848,TA33
S0061,T01,LDIAM,15.8,mm,1904,TA34
S0061,T02,LDIAM,3.3,mm,1904,TA34
S0061,T03,LDIAM,5.4,mm,1904,TA34
S0061,,SUMDIAM,24.5,mm,1904,TA34
S0061,T01,LDIAM,15.8,mm,1960,TA35
S0061,T02,LDIAM,3.3,mm,1960,TA35
S0061,T03,LDIAM,5.4,mm,1960,TA35
S0061,,SUMDIAM,24.5,mm,1960,TA35
S0061,T01,LDIAM,15.8,mm,2016,TA36
S0061,T02,LDIAM,3.3,mm,2016,TA36
S0061,T03,LDIAM,5.4,mm,2016,TA36
S0061,,SUMDIAM,24.5,mm,2016,TA36
S0061,T01,LDIAM,15.8,mm,2072,TA37
S0061,T02,LDIAM,3.3,mm,2072,TA37
S0061,T03,LDIAM,5.4,mm,2072,TA37
S0061,,SUMDIAM,24.5,mm,2072,TA37
S0062,T01,LDIAM,53.7,mm,0,BASELINE
S0062,T02,LDIAM,33.9,mm,0,BASELINE
S0062,T03,LDIAM,35.8,mm,0,BASELINE
S0062,T04,LDIAM,48.2,mm,0,BASELINE
S0062,T05,LDIAM,29.1,mm,0,BASELINE
S0062,,SUMDIAM,200.7,mm,0,BASELINE
S0062,T01,LDIAM,37.6,mm,56,TA1
S0062,T02,LDIAM,23.7,mm,56,TA1
S0062,T03,LDIAM,25.0,mm,56,TA1
S0062,T04,LDIAM,33.7,mm,56,TA1
S0062,T05,LDIAM,20.4,mm,56,TA1
S0062,,SUMDIAM,140.4,mm,56,TA1
S0062,T01,LDIAM,21.4,mm,112,TA2
S0062,T02,LDIAM,13.5,mm,112,TA2
S0062,T03,LDIAM,14.3,mm,112,TA2
S0062,T04,LDIAM,19.3,mm,112,TA2
S0062,T05,LDIAM,11.6,mm,112,TA2
S0062,,SUMDIAM,80.2,mm,112,TA2
S0063,T01,LDIAM,38.8,mm,0,BASELINE
S0063,,SUMDIAM,38.8,mm,0,BASELINE
S0063,T01,LDIAM,27.5,mm,56,TA1
S0063,,SUMDIAM,27.5,mm,56,TA1
S0063,T01,LDIAM,16.1,mm,112,TA2
S0063,,SUMDIAM,16.1,mm,112,TA2
S0063,T01,LDIAM,16.1,mm,168,TA3
S0063,,SUMDIAM,16.1,mm,168,TA3
S0063,T01,LDIAM,16.1,mm,224,TA4
S0063,,SUMDIAM,16.1,mm,224,TA4
S0063,T01,LDIAM,22.1,mm,280,TA5
S0063,,SUMDIAM,22.1,mm,280,TA5
S0063,T01,LDIAM,22.1,mm,336,TA6
S0063,,SUMDIAM,22.1,mm,336,TA6
S0063,T01,LDIAM,22.1,mm,392,TA7
S0063,,SUMDIAM,22.1,mm,392,TA7
S0064,T01,LDIAM,57.7,mm,0,BASELINE
S0064,T02,LDIAM,23.6,mm,0,BASELINE
S0064,,SUMDIAM,81.3,mm,0,BASELINE
S0064,T01,LDIAM,61.9,mm,56,TA1
S0064,T02,LDIAM,25.3,mm,56,TA1
S0064,,SUMDIAM,87.3,mm,56,TA1
S0064,T01,LDIAM,66.2,mm,112,TA2
S0064,T02,LDIAM,27.1,mm,112,TA2
S0064,,SUMDIAM,93.2,mm,112,TA2
S0064,T01,LDIAM,66.2,mm,168,TA3
S0064,T02,LDIAM,27.1,mm,168,TA3
S0064,,SUMDIAM,93.2,mm,168,TA3
S0064,T01,LDIAM,66.2,mm,224,TA4
S0064,T02,LDIAM,27.1,mm,224,TA4
S0064,,SUMDIAM,93.2,mm,224,TA4
S0064,T01,LDIAM,66.2,mm,280,TA5
S0064,T02,LDIAM,27.1,mm,280,TA5
S0064,,SUMDIAM,93.2,mm,280,TA5
S0064,T01,LDIAM,66.2,mm,336,TA6
S0064,T02,LDIAM,27.1,mm,336,TA6
S0064,,SUMDIAM,93.2,mm,336,TA6
S0064,T01,LDIAM,66.2,mm,392,TA7
S0064,T02,LDIAM,27.1,mm,392,TA7
S0064,,SUMDIAM,93.2,mm,392,TA7
S0064,T01,LDIAM,66.2,mm,448,TA8
S0064,T02,LDIAM,27.1,mm,448,TA8
S0064,,SUMDIAM,93.2,mm,448,TA8
S0064,T01,LDIAM,66.2,mm,504,TA9
S0064,T02,LDIAM,27.1,mm,504,TA9
S0064,,SUMDIAM,93.2,mm,504,TA9
S0064,T01,LDIAM,66.2,mm,560,TA10
S0064,T02,LDIAM,27.1,mm,560,TA10
S0064,,SUMDIAM,93.2,mm,560,TA10
S0064,T01,LDIAM,66.2,mm,616,TA11
S0064,T02,LDIAM,27.1,mm,616,TA11
S0064,,SUMDIAM,93.2,mm,616,TA11
S0064,T01,LDIAM,66.2,mm,672,TA12
S0064,T02,LDIAM,27.1,mm,672,TA12
S0064,,SUMDIAM,93.2,mm,672,TA12
S0064,T01,LDIAM,66.2,mm,728,TA13
S0064,T02,LDIAM,27.1,mm,728,TA13
S0064,,SUMDIAM,93.2,mm,728,TA13
S0064,T01,LDIAM,66.2,mm,784,TA14
S0064,T02,LDIAM,27.1,mm,784,TA14
S0064,,SUMDIAM,93.2,mm,784,TA14
S0064,T01,LDIAM,66.2,mm,840,TA15
S0064,T02,LDIAM,27.1,mm,840,TA15
S0064,,SUMDIAM,93.2,mm,840,TA15
S0064,T01,LDIAM,72.1,mm,896,TA16
S0064,T02,LDIAM,29.5,mm,896,TA16
S0064,,SUMDIAM,101.6,mm,896,TA16
S0065,T01,LDIAM,54.7,mm,0,BASELINE
S0065,T02,LDIAM,43.3,mm,0,BASELINE
S0065,T03,LDIAM,32.4,mm,0,BASELINE
S0065,,SUMDIAM,130.4,mm,0,BASELINE
S0065,T01,LDIAM,48.0,mm,56,TA1
S0065,T02,LDIAM,38.0,mm,56,TA1
S0065,T03,LDIAM,28.4,mm,56,TA1
S0065,,SUMDIAM,114.3,mm,56,TA1
S0065,T01,LDIAM,41.2,mm,112,TA2
S0065,T02,LDIAM,32.6,mm,112,TA2
S0065,T03,LDIAM,24.4,mm,112,TA2
S0065,,SUMDIAM,98.2,mm,112,TA2
S0065,T01,LDIAM,41.2,mm,168,TA3
S0065,T02,LDIAM,32.6,mm,168,TA3
S0065,T03,LDIAM,24.4,mm,168,TA3
S0065,,SUMDIAM,98.2,mm,168,TA3
S0065,T01,LDIAM,41.2,mm,224,TA4
S0065,T02,LDIAM,32.6,mm,224,TA4
S0065,T03,LDIAM,24.4,mm,224,TA4
S0065,,SUMDIAM,98.2,mm,224,TA4
S0065,T01,LDIAM,41.2,mm,280,TA5
S0065,T02,LDIAM,32.6,mm,280,TA5
S0065,T03,LDIAM,24.4,mm,280,TA5
S0065,,SUMDIAM,98.2,mm,280,TA5
S0065,T01,LDIAM,41.2,mm,336,TA6
S0065,T02,LDIAM,32.6,mm,336,TA6
S0065,T03,LDIAM,24.4,mm,336,TA6
S0065,,SUMDIAM,98.2,mm,336,TA6
S0065,T01,LDIAM,41.2,mm,392,TA7
S0065,T02,LDIAM,32.6,mm,392,TA7
S0065,T03,LDIAM,24.4,mm,392,TA7
S0065,,SUMDIAM,98.2,mm,392,TA7
S0065,T01,LDIAM,41.2,mm,448,TA8
S0065,T02,LDIAM,32.6,mm,448,TA8
S0065,T03,LDIAM,24.4,mm,448,TA8
S0065,,SUMDIAM,98.2,mm,448,TA8
S0065,T01,LDIAM,41.2,mm,504,TA9
S0065,T02,LDIAM,32.6,mm,504,TA9
S0065,T03,LDIAM,24.4,mm,504,TA9
S0065,,SUMDIAM,98.2,mm,504,TA9
S0065,T01,LDIAM,41.2,mm,560,TA10
S0065,T02,LDIAM,32.6,mm,560,TA10
S0065,T03,LDIAM,24.4,mm,560,TA10
S0065,,SUMDIAM,98.2,mm,560,TA10
S0065,T01,LDIAM,41.2,mm,616,TA11
S0065,T02,LDIAM,32.6,mm,616,TA11
S0065,T03,LDIAM,24.4,mm,616,TA11
S0065,,SUMDIAM,98.2,mm,616,TA11
S0065,T01,LDIAM,41.2,mm,672,TA12
S0065,T02,LDIAM,32.6,mm,672,TA12
S0065,T03,LDIAM,24.4,mm,672,TA12
S0065,,SUMDIAM,98.2,mm,672,TA12
S0065,T01,LDIAM,41.2,mm,728,TA13
S0065,T02,LDIAM,32.6,mm,728,TA13
S0065,T03,LDIAM,24.4,mm,728,TA13
S0065,,SUMDIAM,98.2,mm,728,TA13
S0065,T01,LDIAM,41.2,mm,784,TA14
S0065,T02,LDIAM,32.6,mm,784,TA14
S0065,T03,LDIAM,24.4,mm,784,TA14
S0065,,SUMDIAM,98.2,mm,784,TA14
S0065,T01,LDIAM,41.2,mm,840,TA15
S0065,T02,LDIAM,32.6,mm,840,TA15
S0065,T03,LDIAM,24.4,mm,840,TA15
S0065,,SUMDIAM,98.2,mm,840,TA15
S0065,T01,LDIAM,41.2,mm,896,TA16
S0065,T02,LDIAM,32.6,mm,896,TA16
S0065,T03,LDIAM,24.4,mm,896,TA16
S0065,,SUMDIAM,98.2,mm,896,TA16
S0065,T01,LDIAM,52.2,mm,952,TA17
S0065,T02,LDIAM,41.3,mm,952,TA17
S0065,T03,LDIAM,30.9,mm,952,TA17
S0065,,SUMDIAM,124.4,mm,952,TA17
S0066,T01,LDIAM,22.2,mm,0,BASELINE
S0066,T02,LDIAM,52.6,mm,0,BASELINE
S0066,T03,LDIAM,12.6,mm,0,BASELINE
S0066,,SUMDIAM,87.4,mm,0,BASELINE
S0066,T01,LDIAM,19.9,mm,56,TA1
S0066,T02,LDIAM,47.3,mm,56,TA1
S0066,T03,LDIAM,11.3,mm,56,TA1
S0066,,SUMDIAM,78.5,mm,56,TA1
S0067,T01,LDIAM,17.1,mm,0,BASELINE
S0067,T02,LDIAM,49.6,mm,0,BASELINE
S0067,T03,LDIAM,11.7,mm,0,BASELINE
S0067,T04,LDIAM,50.5,mm,0,BASELINE
S0067,,SUMDIAM,128.9,mm,0,BASELINE
S0067,T01,LDIAM,13.4,mm,56,TA1
S0067,T02,LDIAM,38.8,mm,56,TA1
S0067,T03,LDIAM,9.1,mm,56,TA1
S0067,T04,LDIAM,39.5,mm,56,TA1
S0067,,SUMDIAM,100.8,mm,56,TA1
S0067,T01,LDIAM,9.6,mm,112,TA2
S0067,T02,LDIAM,28.0,mm,112,TA2
S0067,T03,LDIAM,6.6,mm,112,TA2
S0067,T04,LDIAM,28.5,mm,112,TA2
S0067,,SUMDIAM,72.7,mm,112,TA2
S0067,T01,LDIAM,9.6,mm,168,TA3
S0067,T02,LDIAM,28.0,mm,168,TA3
S0067,T03,LDIAM,6.6,mm,168,TA3
S0067,T04,LDIAM,28.5,mm,168,TA3
S0067,,SUMDIAM,72.7,mm,168,TA3
S0068,T01,LDIAM,11.4,mm,0,BASELINE
S0068,T02,LDIAM,23.8,mm,0,BASELINE
S0068,,SUMDIAM,35.2,mm,0,BASELINE
S0068,T01,LDIAM,10.1,mm,56,TA1
S0068,T02,LDIAM,21.0,mm,56,TA1
S0068,,SUMDIAM,31.1,mm,56,TA1
S0068,T01,LDIAM,8.7,mm,112,TA2
S0068,T02,LDIAM,18.2,mm,112,TA2
S0068,,SUMDIAM,26.9,mm,112,TA2
S0068,T01,LDIAM,8.7,mm,168,TA3
S0068,T02,LDIAM,18.2,mm,168,TA3
S0068,,SUMDIAM,26.9,mm,168,TA3
S0068,T01,LDIAM,8.7,mm,224,TA4
S0068,T02,LDIAM,18.2,mm,224,TA4
S0068,,SUMDIAM,26.9,mm,224,TA4
S0069,T01,LDIAM,32.3,mm,0,BASELINE
S0069,,SUMDIAM,32.3,mm,0,BASELINE
S0069,T01,LDIAM,21.0,mm,56,TA1
S0069,,SUMDIAM,21.0,mm,56,TA1
S0069,T01,LDIAM,9.6,mm,112,TA2
S0069,,SUMDIAM,9.6,mm,112,TA2
S0069,T01,LDIAM,9.6,mm,168,TA3
S0069,,SUMDIAM,9.6,mm,168,TA3
S0070,T01,LDIAM,13.3,mm,0,BASELINE
S0070,T02,LDIAM,34.5,mm,0,BASELINE
S0070,T03,LDIAM,10.9,mm,0,BASELINE
S0070,,SUMDIAM,58.7,mm,0,BASELINE
S0070,T01,LDIAM,11.8,mm,56,TA1
S0070,T02,LDIAM,30.6,mm,56,TA1
S0070,T03,LDIAM,9.7,mm,56,TA1
S0070,,SUMDIAM,52.0,mm,56,TA1
S0070,T01,LDIAM,10.3,mm,112,TA2
S0070,T02,LDIAM,26.7,mm,112,TA2
S0070,T03,LDIAM,8.4,mm,112,TA2
S0070,,SUMDIAM,45.4,mm,112,TA2
S0070,T01,LDIAM,10.3,mm,168,TA3
S0070,T02,LDIAM,26.7,mm,168,TA3
S0070,T03,LDIAM,8.4,mm,168,TA3
S0070,,SUMDIAM,45.4,mm,168,TA3
S0070,T01,LDIAM,10.3,mm,224,TA4
S0070,T02,LDIAM,26.7,mm,224,TA4
S0070,T03,LDIAM,8.4,mm,224,TA4
S0070,,SUMDIAM,45.4,mm,224,TA4
S0070,T01,LDIAM,10.3,mm,280,TA5
S0070,T02,LDIAM,26.7,mm,280,TA5
S0070,T03,LDIAM,8.4,mm,280,TA5
S0070,,SUMDIAM,45.4,mm,280,TA5
S0070,T01,LDIAM,10.3,mm,336,TA6
S0070,T02,LDIAM,26.7,mm,336,TA6
S0070,T03,LDIAM,8.4,mm,336,TA6
S0070,,SUMDIAM,45.4,mm,336,TA6
S0070,T01,LDIAM,10.3,mm,392,TA7
S0070,T02,LDIAM,26.7,mm,392,TA7
S0070,T03,LDIAM,8.4,mm,392,TA7
S0070,,SUMDIAM,45.4,mm,392,TA7
S0070,T01,LDIAM,10.3,mm,448,TA8
S0070,T02,LDIAM,26.7,mm,448,TA8
S0070,T03,LDIAM,8.4,mm,448,TA8
S0070,,SUMDIAM,45.4,mm,448,TA8
S0070,T01,LDIAM,10.3,mm,504,TA9
S0070,T02,LDIAM,26.7,mm,504,TA9
S0070,T03,LDIAM,8.4,mm,504,TA9
S0070,,SUMDIAM,45.4,mm,504,TA9
S0070,T01,LDIAM,10.3,mm,560,TA10
S0070,T02,LDIAM,26.7,mm,560,TA10
S0070,T03,LDIAM,8.4,mm,560,TA10
S0070,,SUMDIAM,45.4,mm,560,TA10
S0070,T01,LDIAM,10.3,mm,616,TA11
S0070,T02,LDIAM,26.7,mm,616,TA11
S0070,T03,LDIAM,8.4,mm,616,TA11
S0070,,SUMDIAM,45.4,mm,616,TA11
S0070,T01,LDIAM,10.3,mm,672,TA12
S0070,T02,LDIAM,26.7,mm,672,TA12
S0070,T03,LDIAM,8.4,mm,672,TA12
S0070,,SUMDIAM,45.4,mm,672,TA12
S0070,T01,LDIAM,10.3,mm,728,TA13
S0070,T02,LDIAM,26.7,mm,728,TA13
S0070,T03,LDIAM,8.4,mm,728,TA13
S0070,,SUMDIAM,45.4,mm,728,TA13
S0070,T01,LDIAM,10.3,mm,784,TA14
S0070,T02,LDIAM,26.7,mm,784,TA14
S0070,T03,LDIAM,8.4,mm,784,TA14
S0070,,SUMDIAM,45.4,mm,784,TA14
S0070,T01,LDIAM,13.0,mm,840,TA15
S0070,T02,LDIAM,33.7,mm,840,TA15
S0070,T03,LDIAM,10.7,mm,840,TA15
S0070,,SUMDIAM,57.4,mm,840,TA15
