USUBJID,ARMCD,PARAMCD,PARAM,AVAL_DAYS,CNSR,EVNTDESC
S0001,ARM5,PFS,Progression-free survival (detected at assessment),225,0,progression detected at scheduled tumour assessment
S0001,ARM5,OS,Overall survival (death in the simulated horizon),255,1,censored at last simulated contact
S0002,ARM8,PFS,Progression-free survival (detected at assessment),57,0,progression detected at scheduled tumour assessment
S0002,ARM8,OS,Overall survival (death in the simulated horizon),87,1,censored at last simulated contact
S0003,ARM3,PFS,Progression-free survival (detected at assessment),337,0,progression detected at scheduled tumour assessment
S0003,ARM3,OS,Overall survival (death in the simulated horizon),367,1,censored at last simulated contact
S0004,ARM5,PFS,Progression-free survival (detected at assessment),281,0,progression detected at scheduled tumour assessment
S0004,ARM5,OS,Overall survival (death in the simulated horizon),419,0,death
S0005,ARM4,PFS,Progression-free survival (detected at assessment),113,0,progression detected at scheduled tumour assessment
S0005,ARM4,OS,Overall survival (death in the simulated horizon),143,1,censored at last simulated contact
S0006,ARM5,PFS,Progression-free survival (detected at assessment),281,0,progression detected at scheduled tumour assessment
S0006,ARM5,OS,Overall survival (death in the simulated horizon),311,1,censored at last simulated contact
S0007,ARM3,PFS,Progression-free survival (detected at assessment),281,0,progression detected at scheduled tumour assessment
S0007,ARM3,OS,Overall survival (death in the simulated horizon),311,1,censored at last simulated contact
S0008,ARM5,PFS,Progression-free survival (detected at assessment),393,0,progression detected at scheduled tumour assessment
S0008,ARM5,OS,Overall survival (death in the simulated horizon),423,1,censored at last simulated contact
S0009,ARM4,PFS,Progression-free survival (detected at assessment),169,0,progression detected at scheduled tumour assessment
S0009,ARM4,OS,Overall survival (death in the simulated horizon),199,1,censored at last simulated contact
S0010,ARM4,PFS,Progression-free survival (detected at assessment),281,0,progression detected at scheduled tumour assessment
S0010,ARM4,OS,Overall survival (death in the simulated horizon),311,1,censored at last simulated contact
S0011,ARM4,PFS,Progression-free survival (detected at assessment),113,0,progression detected at scheduled tumour assessment
S0011,ARM4,OS,Overall survival (death in the simulated horizon),143,1,censored at last simulated contact
S0012,ARM3,PFS,Progression-free survival (detected at assessment),225,0,progression detected at scheduled tumour assessment
S0012,ARM3,OS,Overall survival (death in the simulated horizon),255,1,censored at last simulated contact
S0013,ARM3,PFS,Progression-free survival (detected at assessment),729,0,progression detected at scheduled tumour assessment
S0013,ARM3,OS,Overall survival (death in the simulated horizon),759,1,censored at last simulated contact
S0014,ARM5,PFS,Progression-free survival (detected at assessment),729,0,progression detected at scheduled tumour assessment
S0014,ARM5,OS,Overall survival (death in the simulated horizon),759,1,censored at last simulated contact
S0015,ARM5,PFS,Progression-free survival (detected at assessment),169,0,progression detected at scheduled tumour assessment
S0015,ARM5,OS,Overall survival (death in the simulated horizon),199,1,censored at last simulated contact
S0016,ARM3,PFS,Progression-free survival (detected at assessment),113,0,progression detected at scheduled tumour assessment
S0016,ARM3,OS,Overall survival (death in the simulated horizon),143,1,censored at last simulated contact
S0017,ARM3,PFS,Progression-free survival (detected at assessment),337,0,progression detected at scheduled tumour assessment
S0017,ARM3,OS,Overall survival (death in the simulated horizon),367,1,censored at last simulated contact
S0018,ARM4,PFS,Progression-free survival (detected at assessment),225,0,progression detected at scheduled tumour assessment
S0018,ARM4,OS,Overall survival (death in the simulated horizon),255,1,censored at last simulated contact
S0019,ARM8,PFS,Progression-free survival (detected at assessment),169,0,progression detected at scheduled tumour assessment
S0019,ARM8,OS,Overall survival (death in the simulated horizon),199,1,censored at last simulated contact
S0020,ARM3,PFS,Progression-free survival (detected at assessment),57,0,progression detected at scheduled tumour assessment
S0020,ARM3,OS,Overall survival (death in the simulated horizon),87,1,censored at last simulated contact
S0021,ARM4,PFS,Progression-free survival (detected at assessment),113,0,progression detected at scheduled tumour assessment
S0021,ARM4,OS,Overall survival (death in the simulated horizon),143,1,censored at last simulated contact
S0022,ARM8,PFS,Progression-free survival (detected at assessment),57,0,progression detected at scheduled tumour assessment
S0022,ARM8,OS,Overall survival (death in the simulated horizon),87,1,censored at last simulated contact
S0023,ARM5,PFS,Progression-free survival (detected at assessment),561,0,progression detected at scheduled tumour assessment
S0023,ARM5,OS,Overall survival (death in the simulated horizon),591,1,censored at last simulated contact
S0024,ARM4,PFS,Progression-free survival (detected at assessment),169,0,progression detected at scheduled tumour assessment
S0024,ARM4,OS,Overall survival (death in the simulated horizon),199,1,censored at last simulated contact
S0025,ARM4,PFS,Progression-free survival (detected at assessment),113,1,censored at last tumour assessment
S0025,ARM4,OS,Overall survival (death in the simulated horizon),186,1,censored at last simulated contact
S0026,ARM4,PFS,Progression-free survival (detected at assessment),57,1,censored at last tumour assessment
S0026,ARM4,OS,Overall survival (death in the simulated horizon),90,1,censored at last simulated contact
S0027,ARM8,PFS,Progression-free survival (detected at assessment),57,0,progression detected at scheduled tumour assessment
S0027,ARM8,OS,Overall survival (death in the simulated horizon),87,1,censored at last simulated contact
S0028,ARM8,PFS,Progression-free survival (detected at assessment),617,0,progression detected at scheduled tumour assessment
S0028,ARM8,OS,Overall survival (death in the simulated horizon),647,1,censored at last simulated contact
S0029,ARM5,PFS,Progression-free survival (detected at assessment),113,0,progression detected at scheduled tumour assessment
S0029,ARM5,OS,Overall survival (death in the simulated horizon),143,1,censored at last simulated contact
S0030,ARM5,PFS,Progression-free survival (detected at assessment),169,0,progression detected at scheduled tumour assessment
S0030,ARM5,OS,Overall survival (death in the simulated horizon),199,1,censored at last simulated contact
S0031,ARM3,PFS,Progression-free survival (detected at assessment),113,0,progression detected at scheduled tumour assessment
S0031,ARM3,OS,Overall survival (death in the simulated horizon),459,0,death
S0032,ARM5,PFS,Progression-free survival (detected at assessment),113,0,progression detected at scheduled tumour assessment
S0032,ARM5,OS,Overall survival (death in the simulated horizon),143,1,censored at last simulated contact
S0033,ARM8,PFS,Progression-free survival (detected at assessment),393,0,progression detected at scheduled tumour assessment
S0033,ARM8,OS,Overall survival (death in the simulated horizon),423,1,censored at last simulated contact
S0034,ARM4,PFS,Progression-free survival (detected at assessment),57,1,censored at last tumour assessment
S0034,ARM4,OS,Overall survival (death in the simulated horizon),134,1,censored at last simulated contact
S0035,ARM4,PFS,Progression-free survival (detected at assessment),169,0,progression detected at scheduled tumour assessment
S0035,ARM4,OS,Overall survival (death in the simulated horizon),199,1,censored at last simulated contact
S0036,ARM8,PFS,Progression-free survival (detected at assessment),225,0,progression detected at scheduled tumour assessment
S0036,ARM8,OS,Overall survival (death in the simulated horizon),255,1,censored at last simulated contact
S0037,ARM8,PFS,Progression-free survival (detected at assessment),281,0,progression detected at scheduled tumour assessment
S0037,ARM8,OS,Overall survival (death in the simulated horizon),311,1,censored at last simulated contact
S0038,ARM5,PFS,Progression-free survival (detected at assessment),57,0,progression detected at scheduled tumour assessment
S0038,ARM5,OS,Overall survival (death in the simulated horizon),87,1,censored at last simulated contact
S0039,ARM8,PFS,Progression-free survival (detected at assessment),561,0,progression detected at scheduled tumour assessment
S0039,ARM8,OS,Overall survival (death in the simulated horizon),591,1,censored at last simulated contact
S0040,ARM3,PFS,Progression-free survival (detected at assessment),729,0,progression detected at scheduled tumour assessment
S0040,ARM3,OS,Overall survival (death in the simulated horizon),759,1,censored at last simulated contact
S0041,ARM8,PFS,Progression-free survival (detected at assessment),57,0,progression detected at scheduled tumour assessment
S0041,ARM8,OS,Overall survival (death in the simulated horizon),87,1,censored at last simulated contact
S0042,ARM4,PFS,Progression-free survival (detected at assessment),113,0,progression detected at scheduled tumour assessment
S0042,ARM4,OS,Overall survival (death in the simulated horizon),143,1,censored at last simulated contact
S0043,ARM3,PFS,Progression-free survival (detected at assessment),225,0,progression detected at scheduled tumour assessment
S0043,ARM3,OS,Overall survival (death in the simulated horizon),255,1,censored at last simulated contact
S0044,ARM3,PFS,Progression-free survival (detected at assessment),393,0,progression detected at scheduled tumour assessment
S0044,ARM3,OS,Overall survival (death in the simulated horizon),423,1,censored at last simulated contact
S0045,ARM8,PFS,Progression-free survival (detected at assessment),169,0,progression detected at scheduled tumour assessment
S0045,ARM8,OS,Overall survival (death in the simulated horizon),199,1,censored at last simulated contact
S0046,ARM4,PFS,Progression-free survival (detected at assessment),337,0,progression detected at scheduled tumour assessment
S0046,ARM4,OS,Overall survival (death in the simulated horizon),367,1,censored at last simulated contact
S0047,ARM4,PFS,Progression-free survival (detected at assessment),57,0,progression detected at scheduled tumour assessment
S0047,ARM4,OS,Overall survival (death in the simulated horizon),87,1,censored at last simulated contact
S0048,ARM5,PFS,Progression-free survival (detected at assessment),281,0,progression detected at scheduled tumour assessment
S0048,ARM5,OS,Overall survival (death in the simulated horizon),311,1,censored at last simulated contact
S0049,ARM8,PFS,Progression-free survival (detected at assessment),393,1,censored at last tumour assessment
S0049,ARM8,OS,Overall survival (death in the simulated horizon),439,1,censored at last simulated contact
S0050,ARM8,PFS,Progression-free survival (detected at assessment),169,0,progression detected at scheduled tumour assessment
S0050,ARM8,OS,Overall survival (death in the simulated horizon),199,1,censored at last simulated contact
S0051,ARM3,PFS,Progression-free survival (detected at assessment),57,0,progression detected at scheduled tumour assessment
S0051,ARM3,OS,Overall survival (death in the simulated horizon),87,1,censored at last simulated contact
S0052,ARM5,PFS,Progression-free survival (detected at assessment),281,1,censored at last tumour assessment
S0052,ARM5,OS,Overall survival (death in the simulated horizon),285,0,death
S0053,ARM4,PFS,Progression-free survival (detected at assessment),57,0,progression detected at scheduled tumour assessment
S0053,ARM4,OS,Overall survival (death in the simulated horizon),87,1,censored at last simulated contact
S0054,ARM3,PFS,Progression-free survival (detected at assessment),52,1,censored at last tumour assessment
S0054,ARM3,OS,Overall survival (death in the simulated horizon),52,0,death
S0055,ARM5,PFS,Progression-free survival (detected at assessment),561,0,progression detected at scheduled tumour assessment
S0055,ARM5,OS,Overall survival (death in the simulated horizon),591,1,censored at last simulated contact
S0056,ARM4,PFS,Progression-free survival (detected at assessment),729,1,censored at last tumour assessment
S0056,ARM4,OS,Overall survival (death in the simulated horizon),760,1,censored at last simulated contact
S0057,ARM8,PFS,Progression-free survival (detected at assessment),169,0,progression detected at scheduled tumour assessment
S0057,ARM8,OS,Overall survival (death in the simulated horizon),199,1,censored at last simulated contact
S0058,ARM4,PFS,Progression-free survival (detected at assessment),57,0,progression detected at scheduled tumour assessment
S0058,ARM4,OS,Overall survival (death in the simulated horizon),87,1,censored at last simulated contact
S0059,ARM4,PFS,Progression-free survival (detected at assessment),281,0,progression detected at scheduled tumour assessment
S0059,ARM4,OS,Overall survival (death in the simulated horizon),311,1,censored at last simulated contact
S0060,ARM4,PFS,Progression-free survival (detected at assessment),337,0,progression detected at scheduled tumour assessment
S0060,ARM4,OS,Overall survival (death in the simulated horizon),367,1,censored at last simulated contact
S0061,ARM4,PFS,Progression-free survival (detected at assessment),113,0,progression detected at scheduled tumour assessment
S0061,ARM4,OS,Overall survival (death in the simulated horizon),143,1,censored at last simulated contact
S0062,ARM4,PFS,Progression-free survival (detected at assessment),281,0,progression detected at scheduled tumour assessment
S0062,ARM4,OS,Overall survival (death in the simulated horizon),311,1,censored at last simulated contact
S0063,ARM4,PFS,Progression-free survival (detected at assessment),729,1,censored at last tumour assessment
S0063,ARM4,OS,Overall survival (death in the simulated horizon),760,1,censored at last simulated contact
S0064,ARM5,PFS,Progression-free survival (detected at assessment),57,0,progression detected at scheduled tumour assessment
S0064,ARM5,OS,Overall survival (death in the simulated horizon),87,1,censored at last simulated contact
S0065,ARM3,PFS,Progression-free survival (detected at assessment),169,0,progression detected at scheduled tumour assessment
S0065,ARM3,OS,Overall survival (death in the simulated horizon),256,0,death
S0066,ARM5,PFS,Progression-free survival (detected at assessment),57,0,progression detected at scheduled tumour assessment
S0066,ARM5,OS,Overall survival (death in the simulated horizon),87,1,censored at last simulated contact
S0067,ARM3,PFS,Progression-free survival (detected at assessment),505,0,progression detected at scheduled tumour assessment
S0067,ARM3,OS,Overall survival (death in the simulated horizon),535,1,censored at last simulated contact
S0068,ARM4,PFS,Progression-free survival (detected at assessment),57,0,progression detected at scheduled tumour assessment
S0068,ARM4,OS,Overall survival (death in the simulated horizon),87,1,censored at last simulated contact
S0069,ARM5,PFS,Progression-free survival (detected at assessment),561,0,progression detected at scheduled tumour assessment
S0069,ARM5,OS,Overall survival (death in the simulated horizon),591,1,censored at last simulated contact
S0070,ARM5,PFS,Progression-free survival (detected at assessment),57,1,censored at last tumour assessment
S0070,ARM5,OS,Overall survival (death in the simulated horizon),111,0,death
S0071,ARM4,PFS,Progression-free survival (detected at assessment),57,0,progression detected at scheduled tumour assessment
S0071,ARM4,OS,Overall survival (death in the simulated horizon),87,1,censored at last simulated contact
S0072,ARM5,PFS,Progression-free survival (detected at assessment),729,0,progression detected at scheduled tumour assessment
S0072,ARM5,OS,Overall survival (death in the simulated horizon),759,1,censored at last simulated contact
S0073,ARM3,PFS,Progression-free survival (detected at assessment),225,0,progression detected at scheduled tumour assessment
S0073,ARM3,OS,Overall survival (death in the simulated horizon),255,1,censored at last simulated contact
S0074,ARM3,PFS,Progression-free survival (detected at assessment),393,0,progression detected at scheduled tumour assessment
S0074,ARM3,OS,Overall survival (death in the simulated horizon),423,1,censored at last simulated contact
S0075,ARM5,PFS,Progression-free survival (detected at assessment),113,0,progression detected at scheduled tumour assessment
S0075,ARM5,OS,Overall survival (death in the simulated horizon),143,1,censored at last simulated contact
S0076,ARM3,PFS,Progression-free survival (detected at assessment),393,0,progression detected at scheduled tumour assessment
S0076,ARM3,OS,Overall survival (death in the simulated horizon),423,1,censored at last simulated contact
S0077,ARM5,PFS,Progression-free survival (detected at assessment),57,0,progression detected at scheduled tumour assessment
S0077,ARM5,OS,Overall survival (death in the simulated horizon),87,1,censored at last simulated contact
S0078,ARM3,PFS,Progression-free survival (detected at assessment),505,0,progression detected at scheduled tumour assessment
S0078,ARM3,OS,Overall survival (death in the simulated horizon),535,1,censored at last simulated contact
S0079,ARM8,PFS,Progression-free survival (detected at assessment),169,0,progression detected at scheduled tumour assessment
S0079,ARM8,OS,Overall survival (death in the simulated horizon),199,1,censored at last simulated contact
S0080,ARM5,PFS,Progression-free survival (detected at assessment),225,0,progression detected at scheduled tumour assessment
S0080,ARM5,OS,Overall survival (death in the simulated horizon),255,1,censored at last simulated contact
S0081,ARM8,PFS,Progression-free survival (detected at assessment),57,0,progression detected at scheduled tumour assessment
S0081,ARM8,OS,Overall survival (death in the simulated horizon),87,1,censored at last simulated contact
S0082,ARM3,PFS,Progression-free survival (detected at assessment),169,0,progression detected at scheduled tumour assessment
S0082,ARM3,OS,Overall survival (death in the simulated horizon),199,1,censored at last simulated contact
S0083,ARM4,PFS,Progression-free survival (detected at assessment),449,0,progression detected at scheduled tumour assessment
S0083,ARM4,OS,Overall survival (death in the simulated horizon),479,1,censored at last simulated contact
S0084,ARM5,PFS,Progression-free survival (detected at assessment),449,0,progression detected at scheduled tumour assessment
S0084,ARM5,OS,Overall survival (death in the simulated horizon),479,1,censored at last simulated contact
S0085,ARM5,PFS,Progression-free survival (detected at assessment),225,0,progression detected at scheduled tumour assessment
S0085,ARM5,OS,Overall survival (death in the simulated horizon),255,1,censored at last simulated contact
S0086,ARM4,PFS,Progression-free survival (detected at assessment),57,0,progression detected at scheduled tumour assessment
S0086,ARM4,OS,Overall survival (death in the simulated horizon),87,1,censored at last simulated contact
S0087,ARM3,PFS,Progression-free survival (detected at assessment),57,0,progression detected at scheduled tumour assessment
S0087,ARM3,OS,Overall survival (death in the simulated horizon),87,1,censored at last simulated contact
S0088,ARM8,PFS,Progression-free survival (detected at assessment),449,0,progression detected at scheduled tumour assessment
S0088,ARM8,OS,Overall survival (death in the simulated horizon),479,1,censored at last simulated contact
S0089,ARM5,PFS,Progression-free survival (detected at assessment),113,0,progression detected at scheduled tumour assessment
S0089,ARM5,OS,Overall survival (death in the simulated horizon),143,1,censored at last simulated contact
S0090,ARM5,PFS,Progression-free survival (detected at assessment),337,0,progression detected at scheduled tumour assessment
S0090,ARM5,OS,Overall survival (death in the simulated horizon),367,1,censored at last simulated contact
S0091,ARM3,PFS,Progression-free survival (detected at assessment),449,0,progression detected at scheduled tumour assessment
S0091,ARM3,OS,Overall survival (death in the simulated horizon),479,1,censored at last simulated contact
S0092,ARM5,PFS,Progression-free survival (detected at assessment),113,0,progression detected at scheduled tumour assessment
S0092,ARM5,OS,Overall survival (death in the simulated horizon),472,0,death
S0093,ARM8,PFS,Progression-free survival (detected at assessment),169,0,progression detected at scheduled tumour assessment
S0093,ARM8,OS,Overall survival (death in the simulated horizon),518,0,death
S0094,ARM4,PFS,Progression-free survival (detected at assessment),57,0,progression detected at scheduled tumour assessment
S0094,ARM4,OS,Overall survival (death in the simulated horizon),87,1,censored at last simulated contact
S0095,ARM8,PFS,Progression-free survival (detected at assessment),57,0,progression detected at scheduled tumour assessment
S0095,ARM8,OS,Overall survival (death in the simulated horizon),87,1,censored at last simulated contact
S0096,ARM3,PFS,Progression-free survival (detected at assessment),57,1,censored at last tumour assessment
S0096,ARM3,OS,Overall survival (death in the simulated horizon),109,1,censored at last simulated contact
S0097,ARM4,PFS,Progression-free survival (detected at assessment),281,0,progression detected at scheduled tumour assessment
S0097,ARM4,OS,Overall survival (death in the simulated horizon),311,1,censored at last simulated contact
S0098,ARM8,PFS,Progression-free survival (detected at assessment),57,0,progression detected at scheduled tumour assessment
S0098,ARM8,OS,Overall survival (death in the simulated horizon),87,1,censored at last simulated contact
S0099,ARM3,PFS,Progression-free survival (detected at assessment),393,0,progression detected at scheduled tumour assessment
S0099,ARM3,OS,Overall survival (death in the simulated horizon),423,1,censored at last simulated contact
S0100,ARM8,PFS,Progression-free survival (detected at assessment),57,0,progression detected at scheduled tumour assessment
S0100,ARM8,OS,Overall survival (death in the simulated horizon),87,1,censored at last simulated contact
S0101,ARM4,PFS,Progression-free survival (detected at assessment),57,0,progression detected at scheduled tumour assessment
S0101,ARM4,OS,Overall survival (death in the simulated horizon),87,1,censored at last simulated contact
S0102,ARM8,PFS,Progression-free survival (detected at assessment),169,0,progression detected at scheduled tumour assessment
S0102,ARM8,OS,Overall survival (death in the simulated horizon),199,1,censored at last simulated contact
S0103,ARM3,PFS,Progression-free survival (detected at assessment),113,0,progression detected at scheduled tumour assessment
S0103,ARM3,OS,Overall survival (death in the simulated horizon),143,1,censored at last simulated contact
S0104,ARM3,PFS,Progression-free survival (detected at assessment),169,0,progression detected at scheduled tumour assessment
S0104,ARM3,OS,Overall survival (death in the simulated horizon),199,1,censored at last simulated contact
S0105,ARM5,PFS,Progression-free survival (detected at assessment),113,0,progression detected at scheduled tumour assessment
S0105,ARM5,OS,Overall survival (death in the simulated horizon),143,1,censored at last simulated contact
S0106,ARM5,PFS,Progression-free survival (detected at assessment),113,0,progression detected at scheduled tumour assessment
S0106,ARM5,OS,Overall survival (death in the simulated horizon),143,1,censored at last simulated contact
S0107,ARM4,PFS,Progression-free survival (detected at assessment),281,0,progression detected at scheduled tumour assessment
S0107,ARM4,OS,Overall survival (death in the simulated horizon),311,1,censored at last simulated contact
S0108,ARM8,PFS,Progression-free survival (detected at assessment),281,0,progression detected at scheduled tumour assessment
S0108,ARM8,OS,Overall survival (death in the simulated horizon),350,0,death
S0109,ARM5,PFS,Progression-free survival (detected at assessment),449,0,progression detected at scheduled tumour assessment
S0109,ARM5,OS,Overall survival (death in the simulated horizon),479,1,censored at last simulated contact
S0110,ARM5,PFS,Progression-free survival (detected at assessment),8,1,censored at last tumour assessment
S0110,ARM5,OS,Overall survival (death in the simulated horizon),8,0,death
S0111,ARM4,PFS,Progression-free survival (detected at assessment),281,0,progression detected at scheduled tumour assessment
S0111,ARM4,OS,Overall survival (death in the simulated horizon),311,1,censored at last simulated contact
S0112,ARM4,PFS,Progression-free survival (detected at assessment),561,0,progression detected at scheduled tumour assessment
S0112,ARM4,OS,Overall survival (death in the simulated horizon),591,1,censored at last simulated contact
S0113,ARM3,PFS,Progression-free survival (detected at assessment),281,0,progression detected at scheduled tumour assessment
S0113,ARM3,OS,Overall survival (death in the simulated horizon),311,1,censored at last simulated contact
S0114,ARM8,PFS,Progression-free survival (detected at assessment),57,0,progression detected at scheduled tumour assessment
S0114,ARM8,OS,Overall survival (death in the simulated horizon),87,1,censored at last simulated contact
S0115,ARM3,PFS,Progression-free survival (detected at assessment),57,0,progression detected at scheduled tumour assessment
S0115,ARM3,OS,Overall survival (death in the simulated horizon),87,1,censored at last simulated contact
S0116,ARM4,PFS,Progression-free survival (detected at assessment),281,0,progression detected at scheduled tumour assessment
S0116,ARM4,OS,Overall survival (death in the simulated horizon),311,1,censored at last simulated contact
S0117,ARM8,PFS,Progression-free survival (detected at assessment),57,0,progression detected at scheduled tumour assessment
S0117,ARM8,OS,Overall survival (death in the simulated horizon),87,1,censored at last simulated contact
S0118,ARM3,PFS,Progression-free survival (detected at assessment),57,0,progression detected at scheduled tumour assessment
S0118,ARM3,OS,Overall survival (death in the simulated horizon),87,1,censored at last simulated contact
S0119,ARM5,PFS,Progression-free survival (detected at assessment),169,0,progression detected at scheduled tumour assessment
S0119,ARM5,OS,Overall survival (death in the simulated horizon),199,1,censored at last simulated contact
S0120,ARM5,PFS,Progression-free survival (detected at assessment),225,0,progression detected at scheduled tumour assessment
S0120,ARM5,OS,Overall survival (death in the simulated horizon),255,1,censored at last simulated contact
S0121,ARM4,PFS,Progression-free survival (detected at assessment),225,0,progression detected at scheduled tumour assessment
S0121,ARM4,OS,Overall survival (death in the simulated horizon),255,1,censored at last simulated contact
S0122,ARM4,PFS,Progression-free survival (detected at assessment),393,0,progression detected at scheduled tumour assessment
S0122,ARM4,OS,Overall survival (death in the simulated horizon),423,1,censored at last simulated contact
S0123,ARM4,PFS,Progression-free survival (detected at assessment),57,0,progression detected at scheduled tumour assessment
S0123,ARM4,OS,Overall survival (death in the simulated horizon),87,1,censored at last simulated contact
S0124,ARM8,PFS,Progression-free survival (detected at assessment),169,0,progression detected at scheduled tumour assessment
S0124,ARM8,OS,Overall survival (death in the simulated horizon),199,1,censored at last simulated contact
S0125,ARM5,PFS,Progression-free survival (detected at assessment),57,0,progression detected at scheduled tumour assessment
S0125,ARM5,OS,Overall survival (death in the simulated horizon),87,1,censored at last simulated contact
S0126,ARM4,PFS,Progression-free survival (detected at assessment),57,0,progression detected at scheduled tumour assessment
S0126,ARM4,OS,Overall survival (death in the simulated horizon),87,1,censored at last simulated contact
S0127,ARM4,PFS,Progression-free survival (detected at assessment),57,0,progression detected at scheduled tumour assessment
S0127,ARM4,OS,Overall survival (death in the simulated horizon),87,1,censored at last simulated contact
S0128,ARM4,PFS,Progression-free survival (detected at assessment),113,0,progression detected at scheduled tumour assessment
S0128,ARM4,OS,Overall survival (death in the simulated horizon),143,1,censored at last simulated contact
S0129,ARM4,PFS,Progression-free survival (detected at assessment),31,1,censored at last tumour assessment
S0129,ARM4,OS,Overall survival (death in the simulated horizon),61,1,censored at last simulated contact
S0130,ARM5,PFS,Progression-free survival (detected at assessment),169,0,progression detected at scheduled tumour assessment
S0130,ARM5,OS,Overall survival (death in the simulated horizon),199,1,censored at last simulated contact
S0131,ARM3,PFS,Progression-free survival (detected at assessment),673,1,censored at last tumour assessment
S0131,ARM3,OS,Overall survival (death in the simulated horizon),723,0,death
S0132,ARM4,PFS,Progression-free survival (detected at assessment),113,0,progression detected at scheduled tumour assessment
S0132,ARM4,OS,Overall survival (death in the simulated horizon),143,1,censored at last simulated contact
S0133,ARM3,PFS,Progression-free survival (detected at assessment),449,0,progression detected at scheduled tumour assessment
S0133,ARM3,OS,Overall survival (death in the simulated horizon),479,1,censored at last simulated contact
S0134,ARM3,PFS,Progression-free survival (detected at assessment),225,0,progression detected at scheduled tumour assessment
S0134,ARM3,OS,Overall survival (death in the simulated horizon),255,1,censored at last simulated contact
S0135,ARM8,PFS,Progression-free survival (detected at assessment),225,0,progression detected at scheduled tumour assessment
S0135,ARM8,OS,Overall survival (death in the simulated horizon),255,1,censored at last simulated contact
S0136,ARM8,PFS,Progression-free survival (detected at assessment),281,1,censored at last tumour assessment
S0136,ARM8,OS,Overall survival (death in the simulated horizon),281,0,death
S0137,ARM3,PFS,Progression-free survival (detected at assessment),113,0,progression detected at scheduled tumour assessment
S0137,ARM3,OS,Overall survival (death in the simulated horizon),143,1,censored at last simulated contact
S0138,ARM5,PFS,Progression-free survival (detected at assessment),113,0,progression detected at scheduled tumour assessment
S0138,ARM5,OS,Overall survival (death in the simulated horizon),143,1,censored at last simulated contact
S0139,ARM4,PFS,Progression-free survival (detected at assessment),729,1,censored at last tumour assessment
S0139,ARM4,OS,Overall survival (death in the simulated horizon),760,1,censored at last simulated contact
S0140,ARM4,PFS,Progression-free survival (detected at assessment),225,0,progression detected at scheduled tumour assessment
S0140,ARM4,OS,Overall survival (death in the simulated horizon),255,1,censored at last simulated contact
S0141,ARM3,PFS,Progression-free survival (detected at assessment),729,1,censored at last tumour assessment
S0141,ARM3,OS,Overall survival (death in the simulated horizon),760,1,censored at last simulated contact
S0142,ARM4,PFS,Progression-free survival (detected at assessment),113,0,progression detected at scheduled tumour assessment
S0142,ARM4,OS,Overall survival (death in the simulated horizon),143,1,censored at last simulated contact
S0143,ARM4,PFS,Progression-free survival (detected at assessment),393,0,progression detected at scheduled tumour assessment
S0143,ARM4,OS,Overall survival (death in the simulated horizon),423,1,censored at last simulated contact
S0144,ARM3,PFS,Progression-free survival (detected at assessment),42,1,censored at last tumour assessment
S0144,ARM3,OS,Overall survival (death in the simulated horizon),72,1,censored at last simulated contact
S0145,ARM4,PFS,Progression-free survival (detected at assessment),169,0,progression detected at scheduled tumour assessment
S0145,ARM4,OS,Overall survival (death in the simulated horizon),199,1,censored at last simulated contact
S0146,ARM8,PFS,Progression-free survival (detected at assessment),57,0,progression detected at scheduled tumour assessment
S0146,ARM8,OS,Overall survival (death in the simulated horizon),465,0,death
S0147,ARM3,PFS,Progression-free survival (detected at assessment),113,0,progression detected at scheduled tumour assessment
S0147,ARM3,OS,Overall survival (death in the simulated horizon),143,1,censored at last simulated contact
S0148,ARM5,PFS,Progression-free survival (detected at assessment),57,0,progression detected at scheduled tumour assessment
S0148,ARM5,OS,Overall survival (death in the simulated horizon),87,1,censored at last simulated contact
S0149,ARM4,PFS,Progression-free survival (detected at assessment),225,0,progression detected at scheduled tumour assessment
S0149,ARM4,OS,Overall survival (death in the simulated horizon),255,1,censored at last simulated contact
S0150,ARM5,PFS,Progression-free survival (detected at assessment),393,0,progression detected at scheduled tumour assessment
S0150,ARM5,OS,Overall survival (death in the simulated horizon),423,1,censored at last simulated contact
S0151,ARM8,PFS,Progression-free survival (detected at assessment),113,0,progression detected at scheduled tumour assessment
S0151,ARM8,OS,Overall survival (death in the simulated horizon),143,1,censored at last simulated contact
S0152,ARM8,PFS,Progression-free survival (detected at assessment),225,0,progression detected at scheduled tumour assessment
S0152,ARM8,OS,Overall survival (death in the simulated horizon),255,1,censored at last simulated contact
S0153,ARM3,PFS,Progression-free survival (detected at assessment),57,0,progression detected at scheduled tumour assessment
S0153,ARM3,OS,Overall survival (death in the simulated horizon),87,1,censored at last simulated contact
S0154,ARM3,PFS,Progression-free survival (detected at assessment),57,0,progression detected at scheduled tumour assessment
S0154,ARM3,OS,Overall survival (death in the simulated horizon),87,1,censored at last simulated contact
S0155,ARM5,PFS,Progression-free survival (detected at assessment),393,0,progression detected at scheduled tumour assessment
S0155,ARM5,OS,Overall survival (death in the simulated horizon),423,1,censored at last simulated contact
S0156,ARM5,PFS,Progression-free survival (detected at assessment),729,1,censored at last tumour assessment
S0156,ARM5,OS,Overall survival (death in the simulated horizon),760,1,censored at last simulated contact
S0157,ARM5,PFS,Progression-free survival (detected at assessment),57,0,progression detected at scheduled tumour assessment
S0157,ARM5,OS,Overall survival (death in the simulated horizon),87,1,censored at last simulated contact
S0158,ARM4,PFS,Progression-free survival (detected at assessment),169,0,progression detected at scheduled tumour assessment
S0158,ARM4,OS,Overall survival (death in the simulated horizon),603,0,death
S0159,ARM4,PFS,Progression-free survival (detected at assessment),169,0,progression detected at scheduled tumour assessment
S0159,ARM4,OS,Overall survival (death in the simulated horizon),199,1,censored at last simulated contact
S0160,ARM4,PFS,Progression-free survival (detected at assessment),281,0,progression detected at scheduled tumour assessment
S0160,ARM4,OS,Overall survival (death in the simulated horizon),311,1,censored at last simulated contact
S0161,ARM3,PFS,Progression-free survival (detected at assessment),337,0,progression detected at scheduled tumour assessment
S0161,ARM3,OS,Overall survival (death in the simulated horizon),367,1,censored at last simulated contact
S0162,ARM5,PFS,Progression-free survival (detected at assessment),57,0,progression detected at scheduled tumour assessment
S0162,ARM5,OS,Overall survival (death in the simulated horizon),87,1,censored at last simulated contact
S0163,ARM3,PFS,Progression-free survival (detected at assessment),57,0,progression detected at scheduled tumour assessment
S0163,ARM3,OS,Overall survival (death in the simulated horizon),87,1,censored at last simulated contact
S0164,ARM5,PFS,Progression-free survival (detected at assessment),57,0,progression detected at scheduled tumour assessment
S0164,ARM5,OS,Overall survival (death in the simulated horizon),87,1,censored at last simulated contact
S0165,ARM4,PFS,Progression-free survival (detected at assessment),281,0,progression detected at scheduled tumour assessment
S0165,ARM4,OS,Overall survival (death in the simulated horizon),311,1,censored at last simulated contact
S0166,ARM3,PFS,Progression-free survival (detected at assessment),169,0,progression detected at scheduled tumour assessment
S0166,ARM3,OS,Overall survival (death in the simulated horizon),199,1,censored at last simulated contact
S0167,ARM5,PFS,Progression-free survival (detected at assessment),169,0,progression detected at scheduled tumour assessment
S0167,ARM5,OS,Overall survival (death in the simulated horizon),199,1,censored at last simulated contact
S0168,ARM4,PFS,Progression-free survival (detected at assessment),561,0,progression detected at scheduled tumour assessment
S0168,ARM4,OS,Overall survival (death in the simulated horizon),591,1,censored at last simulated contact
S0169,ARM5,PFS,Progression-free survival (detected at assessment),113,0,progression detected at scheduled tumour assessment
S0169,ARM5,OS,Overall survival (death in the simulated horizon),143,1,censored at last simulated contact
S0170,ARM5,PFS,Progression-free survival (detected at assessment),57,0,progression detected at scheduled tumour assessment
S0170,ARM5,OS,Overall survival (death in the simulated horizon),87,1,censored at last simulated contact
S0171,ARM4,PFS,Progression-free survival (detected at assessment),57,0,progression detected at scheduled tumour assessment
S0171,ARM4,OS,Overall survival (death in the simulated horizon),87,1,censored at last simulated contact
S0172,ARM8,PFS,Progression-free survival (detected at assessment),617,0,progression detected at scheduled tumour assessment
S0172,ARM8,OS,Overall survival (death in the simulated horizon),647,1,censored at last simulated contact
S0173,ARM3,PFS,Progression-free survival (detected at assessment),281,0,progression detected at scheduled tumour assessment
S0173,ARM3,OS,Overall survival (death in the simulated horizon),311,1,censored at last simulated contact
S0174,ARM4,PFS,Progression-free survival (detected at assessment),337,0,progression detected at scheduled tumour assessment
S0174,ARM4,OS,Overall survival (death in the simulated horizon),367,1,censored at last simulated contact
S0175,ARM3,PFS,Progression-free survival (detected at assessment),57,0,progression detected at scheduled tumour assessment
S0175,ARM3,OS,Overall survival (death in the simulated horizon),87,1,censored at last simulated contact
S0176,ARM3,PFS,Progression-free survival (detected at assessment),673,0,progression detected at scheduled tumour assessment
S0176,ARM3,OS,Overall survival (death in the simulated horizon),703,1,censored at last simulated contact
S0177,ARM4,PFS,Progression-free survival (detected at assessment),393,0,progression detected at scheduled tumour assessment
S0177,ARM4,OS,Overall survival (death in the simulated horizon),423,1,censored at last simulated contact
S0178,ARM3,PFS,Progression-free survival (detected at assessment),57,0,progression detected at scheduled tumour assessment
S0178,ARM3,OS,Overall survival (death in the simulated horizon),87,1,censored at last simulated contact
S0179,ARM5,PFS,Progression-free survival (detected at assessment),169,0,progression detected at scheduled tumour assessment
S0179,ARM5,OS,Overall survival (death in the simulated horizon),199,1,censored at last simulated contact
S0180,ARM4,PFS,Progression-free survival (detected at assessment),169,1,censored at last tumour assessment
S0180,ARM4,OS,Overall survival (death in the simulated horizon),214,0,death
S0181,ARM8,PFS,Progression-free survival (detected at assessment),393,0,progression detected at scheduled tumour assessment
S0181,ARM8,OS,Overall survival (death in the simulated horizon),423,1,censored at last simulated contact
S0182,ARM8,PFS,Progression-free survival (detected at assessment),57,0,progression detected at scheduled tumour assessment
S0182,ARM8,OS,Overall survival (death in the simulated horizon),87,1,censored at last simulated contact
S0183,ARM5,PFS,Progression-free survival (detected at assessment),57,0,progression detected at scheduled tumour assessment
S0183,ARM5,OS,Overall survival (death in the simulated horizon),87,1,censored at last simulated contact
S0184,ARM3,PFS,Progression-free survival (detected at assessment),113,0,progression detected at scheduled tumour assessment
S0184,ARM3,OS,Overall survival (death in the simulated horizon),143,1,censored at last simulated contact
S0185,ARM5,PFS,Progression-free survival (detected at assessment),393,0,progression detected at scheduled tumour assessment
S0185,ARM5,OS,Overall survival (death in the simulated horizon),423,1,censored at last simulated contact
S0186,ARM5,PFS,Progression-free survival (detected at assessment),225,0,progression detected at scheduled tumour assessment
S0186,ARM5,OS,Overall survival (death in the simulated horizon),255,1,censored at last simulated contact
S0187,ARM5,PFS,Progression-free survival (detected at assessment),281,0,progression detected at scheduled tumour assessment
S0187,ARM5,OS,Overall survival (death in the simulated horizon),311,1,censored at last simulated contact
S0188,ARM3,PFS,Progression-free survival (detected at assessment),113,0,progression detected at scheduled tumour assessment
S0188,ARM3,OS,Overall survival (death in the simulated horizon),143,1,censored at last simulated contact
S0189,ARM3,PFS,Progression-free survival (detected at assessment),169,0,progression detected at scheduled tumour assessment
S0189,ARM3,OS,Overall survival (death in the simulated horizon),199,1,censored at last simulated contact
S0190,ARM3,PFS,Progression-free survival (detected at assessment),393,0,progression detected at scheduled tumour assessment
S0190,ARM3,OS,Overall survival (death in the simulated horizon),423,1,censored at last simulated contact
