STUDYID,USUBJID,ARMCD,AGE,SEX,RACE,ETHNIC,RFSTDTC_DAY,ENROLLMENT_DAY,TRTSDY,TRTEDY,EOTREAS,N_CYCLES,N_REDUCTIONS,N_HOLDS,RDI,ANY_SAE,ANY_GR3,DTHFL,DTHDY
03859427,S0001,ARM2,68.78,male,white,not_hispanic_or_latino,1,11.3,1,336,completed planned treatment,12,0,5,1.0,N,N,N,
03859427,S0002,ARM2,72.85,male,black_or_african_american,not_hispanic_or_latino,1,13.7,1,336,completed planned treatment,12,0,2,1.0,Y,Y,N,
03859427,S0003,ARM1,70.0,male,white,not_hispanic_or_latino,1,20.3,1,336,completed planned treatment,12,0,5,0.997,Y,Y,N,
03859427,S0004,ARM2,58.47,female,white,not_hispanic_or_latino,1,25.7,1,328,death,12,0,1,1.0,N,N,Y,328
03859427,S0005,ARM1,62.26,female,white,not_hispanic_or_latino,1,30.5,1,336,completed planned treatment,12,0,5,0.997,Y,Y,N,
03859427,S0006,ARM1,68.65,female,white,not_hispanic_or_latino,1,32.5,1,336,completed planned treatment,12,0,6,0.997,Y,Y,N,
03859427,S0007,ARM1,47.55,female,asian,not_hispanic_or_latino,1,34.3,1,336,completed planned treatment,12,0,7,0.991,Y,Y,N,
03859427,S0008,ARM1,89.26,male,white,not_hispanic_or_latino,1,55.2,1,336,completed planned treatment,12,0,4,0.997,Y,Y,N,
03859427,S0009,ARM2,63.78,female,white,not_hispanic_or_latino,1,57.2,1,336,completed planned treatment,12,0,0,1.0,N,N,N,
03859427,S0010,ARM2,50.89,female,white,not_hispanic_or_latino,1,60.5,1,336,completed planned treatment,12,0,2,0.995,Y,Y,N,
03859427,S0011,ARM2,67.77,male,white,not_hispanic_or_latino,1,64.8,1,336,completed planned treatment,12,0,1,0.997,Y,Y,N,
03859427,S0012,ARM1,61.42,male,white,not_hispanic_or_latino,1,68.6,1,336,completed planned treatment,12,0,1,1.0,N,N,N,
03859427,S0013,ARM1,61.09,male,white,not_hispanic_or_latino,1,74.7,1,336,completed planned treatment,12,0,4,0.991,Y,Y,N,
03859427,S0014,ARM1,67.52,female,white,not_hispanic_or_latino,1,75.8,1,6,death,1,0,1,1.0,N,N,Y,6
03859427,S0015,ARM1,79.23,female,white,not_hispanic_or_latino,1,80.7,1,45,"withdrawal (subject, loss to follow-up or physician decision)",2,0,1,1.0,N,N,N,
03859427,S0016,ARM1,56.33,male,white,not_hispanic_or_latino,1,91.9,1,336,completed planned treatment,12,0,6,0.997,Y,Y,N,
03859427,S0017,ARM2,71.86,male,black_or_african_american,not_hispanic_or_latino,1,96.4,1,336,completed planned treatment,12,0,3,0.997,N,N,N,
03859427,S0018,ARM1,59.21,male,white,not_hispanic_or_latino,1,98.2,1,336,completed planned treatment,12,0,4,1.0,Y,Y,N,
03859427,S0019,ARM1,55.84,male,white,not_hispanic_or_latino,1,98.4,1,336,completed planned treatment,12,0,3,0.997,Y,Y,N,
03859427,S0020,ARM2,65.12,female,white,not_hispanic_or_latino,1,100.4,1,336,completed planned treatment,12,0,2,1.0,N,N,N,
03859427,S0021,ARM2,69.41,male,white,not_hispanic_or_latino,1,100.5,1,336,completed planned treatment,12,0,2,1.0,Y,Y,N,
03859427,S0022,ARM2,57.6,male,white,not_hispanic_or_latino,1,102.0,1,309,disease progression,12,0,1,1.0,Y,Y,N,
03859427,S0023,ARM1,68.04,female,white,not_hispanic_or_latino,1,103.7,1,336,completed planned treatment,12,0,3,1.0,N,N,N,
03859427,S0024,ARM2,37.98,female,white,not_hispanic_or_latino,1,110.8,1,336,completed planned treatment,12,0,3,0.995,Y,Y,N,
03859427,S0025,ARM2,75.67,male,white,not_hispanic_or_latino,1,125.0,1,141,disease progression,6,0,4,0.981,Y,Y,N,
03859427,S0026,ARM2,44.48,female,white,not_hispanic_or_latino,1,125.8,1,29,disease progression,2,0,1,1.0,Y,Y,N,
03859427,S0027,ARM1,59.24,female,asian,not_hispanic_or_latino,1,131.4,1,336,completed planned treatment,12,0,6,0.988,Y,Y,N,
03859427,S0028,ARM1,72.1,male,american_indian_or_alaska_native,hispanic_or_latino,1,149.2,1,336,completed planned treatment,12,0,4,0.994,Y,Y,N,
03859427,S0029,ARM1,59.93,male,white,not_hispanic_or_latino,1,160.0,1,336,completed planned treatment,12,0,2,0.997,N,N,N,
03859427,S0030,ARM1,59.3,female,white,not_hispanic_or_latino,1,163.3,1,336,completed planned treatment,12,0,3,1.0,Y,Y,N,
03859427,S0031,ARM2,69.42,male,white,not_hispanic_or_latino,1,171.6,1,309,disease progression,12,0,1,1.0,N,N,N,
03859427,S0032,ARM2,68.36,female,white,not_hispanic_or_latino,1,178.9,1,29,disease progression,2,0,4,1.0,Y,Y,N,
03859427,S0033,ARM2,36.88,female,asian,not_hispanic_or_latino,1,181.5,1,336,completed planned treatment,12,0,3,0.995,Y,Y,N,
03859427,S0034,ARM1,44.73,male,white,not_hispanic_or_latino,1,182.3,1,336,completed planned treatment,12,0,4,1.0,Y,Y,N,
03859427,S0035,ARM2,56.02,male,white,not_hispanic_or_latino,1,182.6,1,336,completed planned treatment,12,0,2,0.997,N,N,N,
03859427,S0036,ARM2,63.88,male,black_or_african_american,not_hispanic_or_latino,1,184.3,1,57,disease progression,3,0,1,1.0,N,N,N,
03859427,S0037,ARM2,50.44,female,white,hispanic_or_latino,1,190.4,1,141,disease progression,6,0,1,1.0,N,N,N,
03859427,S0038,ARM1,49.32,female,white,not_hispanic_or_latino,1,206.0,1,336,completed planned treatment,12,0,1,1.0,N,N,N,
03859427,S0039,ARM1,64.76,female,white,not_hispanic_or_latino,1,216.0,1,336,completed planned treatment,12,0,7,0.991,Y,Y,N,
03859427,S0040,ARM2,60.11,male,white,not_hispanic_or_latino,1,217.1,1,63,"withdrawal (subject, loss to follow-up or physician decision)",3,0,2,1.0,N,N,N,
03859427,S0041,ARM1,75.33,male,white,not_hispanic_or_latino,1,224.1,1,336,completed planned treatment,12,0,1,1.0,N,N,N,
03859427,S0042,ARM2,69.35,male,black_or_african_american,not_hispanic_or_latino,1,227.2,1,336,completed planned treatment,12,0,1,0.995,Y,Y,N,
03859427,S0043,ARM2,63.31,male,white,not_hispanic_or_latino,1,234.2,1,197,disease progression,8,0,2,1.0,N,N,N,
03859427,S0044,ARM1,68.22,male,black_or_african_american,not_hispanic_or_latino,1,239.5,1,336,completed planned treatment,12,0,3,1.0,N,N,N,
03859427,S0045,ARM2,60.84,female,black_or_african_american,not_hispanic_or_latino,1,264.9,1,336,completed planned treatment,12,0,3,0.997,Y,Y,Y,515
03859427,S0046,ARM2,75.46,male,white,not_hispanic_or_latino,1,269.7,1,336,completed planned treatment,12,0,4,1.0,N,N,N,
03859427,S0047,ARM1,56.92,male,black_or_african_american,not_hispanic_or_latino,1,276.3,1,253,disease progression,10,0,2,1.0,N,N,N,
03859427,S0048,ARM1,82.61,male,white,not_hispanic_or_latino,1,283.8,1,141,disease progression,6,0,4,1.0,Y,Y,N,
03859427,S0049,ARM1,43.78,male,white,not_hispanic_or_latino,1,286.7,1,336,completed planned treatment,12,0,2,1.0,N,N,N,
03859427,S0050,ARM1,77.12,female,black_or_african_american,not_hispanic_or_latino,1,287.9,1,336,completed planned treatment,12,0,5,0.997,Y,Y,N,
03859427,S0051,ARM2,76.57,male,asian,not_hispanic_or_latino,1,297.9,1,336,completed planned treatment,12,0,2,1.0,Y,Y,N,
03859427,S0052,ARM2,77.71,male,white,hispanic_or_latino,1,304.2,1,336,completed planned treatment,12,0,1,1.0,N,N,N,
03859427,S0053,ARM1,52.81,female,white,hispanic_or_latino,1,308.6,1,289,"withdrawal (subject, loss to follow-up or physician decision)",11,0,2,1.0,N,N,N,
03859427,S0054,ARM2,48.13,male,black_or_african_american,not_hispanic_or_latino,1,316.1,1,336,completed planned treatment,12,0,1,1.0,Y,Y,N,
03859427,S0055,ARM2,30.58,male,white,not_hispanic_or_latino,1,319.4,1,336,completed planned treatment,12,0,6,0.995,Y,Y,N,
03859427,S0056,ARM1,47.75,male,white,not_hispanic_or_latino,1,320.1,1,197,disease progression,8,0,6,0.995,Y,Y,Y,296
03859427,S0057,ARM2,53.81,male,white,unknown_or_not_reported,1,320.9,1,57,disease progression,3,0,1,1.0,N,N,N,
03859427,S0058,ARM1,54.48,male,black_or_african_american,not_hispanic_or_latino,1,325.2,1,62,"withdrawal (subject, loss to follow-up or physician decision)",3,0,3,1.0,Y,Y,N,
03859427,S0059,ARM2,72.73,female,white,not_hispanic_or_latino,1,331.8,1,336,completed planned treatment,12,0,0,1.0,N,N,N,
03859427,S0060,ARM2,72.44,female,white,not_hispanic_or_latino,1,335.0,1,336,completed planned treatment,12,0,2,1.0,Y,Y,N,
03859427,S0061,ARM2,56.03,female,white,not_hispanic_or_latino,1,338.9,1,333,"withdrawal (subject, loss to follow-up or physician decision)",12,0,5,0.997,Y,Y,N,
03859427,S0062,ARM2,73.68,female,white,not_hispanic_or_latino,1,339.9,1,336,completed planned treatment,12,0,2,0.997,Y,Y,N,
03859427,S0063,ARM1,60.64,male,american_indian_or_alaska_native,not_hispanic_or_latino,1,340.1,1,336,completed planned treatment,12,0,0,1.0,N,N,N,
03859427,S0064,ARM1,57.62,male,white,not_hispanic_or_latino,1,340.2,1,336,completed planned treatment,12,0,2,1.0,N,N,N,
03859427,S0065,ARM1,73.62,male,white,not_hispanic_or_latino,1,341.4,1,336,completed planned treatment,12,0,2,1.0,N,N,N,
03859427,S0066,ARM2,64.18,female,white,not_hispanic_or_latino,1,347.4,1,31,adverse event (registry discontinuation rate),2,0,0,1.0,N,N,N,
03859427,S0067,ARM2,55.02,female,white,not_hispanic_or_latino,1,355.3,1,85,disease progression,4,0,1,0.99,Y,Y,N,
03859427,S0068,ARM2,58.37,male,white,not_hispanic_or_latino,1,359.2,1,336,completed planned treatment,12,0,4,1.0,N,N,N,
03859427,S0069,ARM2,80.54,female,white,not_hispanic_or_latino,1,361.7,1,336,completed planned treatment,12,0,3,0.997,N,N,N,
03859427,S0070,ARM2,60.1,female,white,not_hispanic_or_latino,1,362.2,1,9,"withdrawal (subject, loss to follow-up or physician decision)",1,0,1,1.0,N,N,N,
03859427,S0071,ARM2,61.65,female,white,not_hispanic_or_latino,1,363.3,1,336,completed planned treatment,12,0,1,0.997,Y,Y,Y,543
03859427,S0072,ARM2,52.88,male,white,not_hispanic_or_latino,1,374.3,1,336,completed planned treatment,12,0,1,1.0,Y,Y,N,
03859427,S0073,ARM1,59.13,female,asian,not_hispanic_or_latino,1,380.6,1,336,completed planned treatment,12,0,2,1.0,N,N,N,
03859427,S0074,ARM2,65.77,male,white,unknown_or_not_reported,1,387.7,1,336,completed planned treatment,12,0,1,1.0,Y,Y,N,
03859427,S0075,ARM1,70.0,female,white,not_hispanic_or_latino,1,389.5,1,336,completed planned treatment,12,0,3,1.0,Y,Y,N,
03859427,S0076,ARM2,48.76,male,white,not_hispanic_or_latino,1,393.8,1,336,completed planned treatment,12,0,1,1.0,Y,Y,N,
03859427,S0077,ARM2,51.07,female,white,not_hispanic_or_latino,1,402.5,1,85,disease progression,4,0,1,1.0,Y,Y,N,
03859427,S0078,ARM1,51.91,male,white,not_hispanic_or_latino,1,421.6,1,336,completed planned treatment,12,0,2,1.0,N,N,N,
03859427,S0079,ARM1,68.76,male,white,not_hispanic_or_latino,1,421.6,1,336,completed planned treatment,12,0,4,0.997,Y,Y,N,
03859427,S0080,ARM1,67.84,female,unknown_or_not_reported,unknown_or_not_reported,1,422.2,1,170,death,7,0,2,0.994,N,N,Y,170
03859427,S0081,ARM2,48.4,female,american_indian_or_alaska_native,not_hispanic_or_latino,1,432.0,1,336,completed planned treatment,12,0,4,0.995,Y,Y,N,
03859427,S0082,ARM2,75.15,female,white,not_hispanic_or_latino,1,435.1,1,336,completed planned treatment,12,0,1,1.0,N,N,N,
03859427,S0083,ARM1,61.14,male,more_than_one_race,not_hispanic_or_latino,1,447.3,1,15,"withdrawal (subject, loss to follow-up or physician decision)",1,0,2,1.0,Y,Y,N,
03859427,S0084,ARM1,47.64,male,black_or_african_american,not_hispanic_or_latino,1,451.3,1,336,completed planned treatment,12,0,3,0.997,N,N,N,
03859427,S0085,ARM2,34.06,female,black_or_african_american,not_hispanic_or_latino,1,454.3,1,336,completed planned treatment,12,0,4,0.995,N,N,N,
03859427,S0086,ARM1,46.07,female,white,not_hispanic_or_latino,1,455.8,1,198,"withdrawal (subject, loss to follow-up or physician decision)",8,0,1,1.0,N,N,N,
03859427,S0087,ARM2,69.33,female,black_or_african_american,not_hispanic_or_latino,1,458.9,1,215,"withdrawal (subject, loss to follow-up or physician decision)",8,0,4,0.996,Y,Y,N,
03859427,S0088,ARM1,60.61,male,white,not_hispanic_or_latino,1,471.8,1,336,completed planned treatment,12,0,5,1.0,Y,Y,N,
03859427,S0089,ARM2,59.55,male,white,not_hispanic_or_latino,1,475.8,1,336,completed planned treatment,12,0,3,0.995,N,N,N,
03859427,S0090,ARM2,72.93,female,black_or_african_american,not_hispanic_or_latino,1,484.6,1,336,completed planned treatment,12,0,2,1.0,N,N,N,
03859427,S0091,ARM2,70.23,male,white,not_hispanic_or_latino,1,488.0,1,336,completed planned treatment,12,0,1,1.0,N,N,N,
03859427,S0092,ARM1,55.25,male,white,unknown_or_not_reported,1,494.3,1,336,completed planned treatment,12,0,1,1.0,N,N,N,
03859427,S0093,ARM2,75.62,male,american_indian_or_alaska_native,not_hispanic_or_latino,1,500.0,1,29,disease progression,2,0,0,1.0,N,N,N,
03859427,S0094,ARM2,58.14,male,white,not_hispanic_or_latino,1,507.0,1,57,disease progression,3,0,3,1.0,N,N,N,
03859427,S0095,ARM2,65.92,female,black_or_african_american,not_hispanic_or_latino,1,511.4,1,141,disease progression,6,0,3,0.994,N,N,N,
03859427,S0096,ARM1,44.31,male,white,not_hispanic_or_latino,1,513.9,1,336,completed planned treatment,12,0,3,0.997,Y,Y,N,
03859427,S0097,ARM1,55.17,female,black_or_african_american,not_hispanic_or_latino,1,516.6,1,336,completed planned treatment,12,0,4,0.997,N,N,N,
03859427,S0098,ARM2,60.05,male,white,not_hispanic_or_latino,1,531.1,1,114,"withdrawal (subject, loss to follow-up or physician decision)",5,0,2,0.992,Y,Y,N,
03859427,S0099,ARM2,44.8,male,black_or_african_american,not_hispanic_or_latino,1,534.5,1,336,completed planned treatment,12,0,2,1.0,N,N,N,
03859427,S0100,ARM1,56.77,male,asian,not_hispanic_or_latino,1,544.4,1,336,completed planned treatment,12,0,4,1.0,Y,Y,N,
03859427,S0101,ARM2,57.44,female,white,not_hispanic_or_latino,1,551.6,1,336,completed planned treatment,12,0,3,0.995,Y,Y,N,
03859427,S0102,ARM2,63.03,female,asian,not_hispanic_or_latino,1,551.9,1,47,"withdrawal (subject, loss to follow-up or physician decision)",2,0,1,1.0,N,N,N,
03859427,S0103,ARM1,69.5,female,white,hispanic_or_latino,1,555.3,1,281,disease progression,11,0,2,1.0,N,N,N,
03859427,S0104,ARM2,71.51,male,white,not_hispanic_or_latino,1,576.3,1,336,completed planned treatment,12,0,3,0.997,Y,Y,N,
03859427,S0105,ARM1,39.52,male,unknown_or_not_reported,not_hispanic_or_latino,1,593.8,1,336,completed planned treatment,12,0,3,1.0,Y,Y,N,
03859427,S0106,ARM2,62.31,female,white,not_hispanic_or_latino,1,611.3,1,336,completed planned treatment,12,0,4,0.997,Y,Y,N,
03859427,S0107,ARM2,59.74,male,unknown_or_not_reported,unknown_or_not_reported,1,611.9,1,336,completed planned treatment,12,0,0,1.0,N,N,N,
03859427,S0108,ARM1,50.61,male,white,not_hispanic_or_latino,1,617.9,1,133,adverse event (registry discontinuation rate),5,0,2,0.993,N,N,N,
03859427,S0109,ARM2,73.27,male,white,unknown_or_not_reported,1,623.3,1,336,completed planned treatment,12,0,2,1.0,N,N,N,
03859427,S0110,ARM2,66.17,male,white,not_hispanic_or_latino,1,625.1,1,336,completed planned treatment,12,0,2,1.0,N,N,N,
03859427,S0111,ARM1,55.4,male,white,not_hispanic_or_latino,1,625.6,1,336,completed planned treatment,12,0,3,1.0,N,N,N,
03859427,S0112,ARM2,47.24,female,white,not_hispanic_or_latino,1,626.0,1,336,completed planned treatment,12,0,1,1.0,N,N,N,
03859427,S0113,ARM1,55.9,female,white,not_hispanic_or_latino,1,628.6,1,309,disease progression,12,0,2,1.0,N,N,N,
03859427,S0114,ARM2,70.52,female,asian,not_hispanic_or_latino,1,628.8,1,336,completed planned treatment,12,0,5,0.995,Y,Y,N,
03859427,S0115,ARM1,52.67,male,white,not_hispanic_or_latino,1,629.5,1,336,completed planned treatment,12,0,3,1.0,N,N,N,
03859427,S0116,ARM1,69.92,female,black_or_african_american,not_hispanic_or_latino,1,629.9,1,336,completed planned treatment,12,0,3,1.0,N,N,N,
03859427,S0117,ARM1,66.5,female,white,not_hispanic_or_latino,1,636.4,1,3,adverse event (registry discontinuation rate),1,0,0,1.0,Y,Y,N,
03859427,S0118,ARM2,51.35,male,white,not_hispanic_or_latino,1,641.8,1,336,completed planned treatment,12,0,4,0.997,N,N,N,
03859427,S0119,ARM2,75.75,female,white,not_hispanic_or_latino,1,643.6,1,225,disease progression,9,0,2,0.996,Y,Y,N,
03859427,S0120,ARM1,46.04,male,unknown_or_not_reported,not_hispanic_or_latino,1,657.0,1,336,completed planned treatment,12,0,3,1.0,N,N,N,
03859427,S0121,ARM1,55.04,female,white,not_hispanic_or_latino,1,660.5,1,90,adverse event (registry discontinuation rate),4,0,1,0.989,N,N,N,
03859427,S0122,ARM2,73.62,male,white,not_hispanic_or_latino,1,672.3,1,336,completed planned treatment,12,0,1,1.0,N,N,N,
03859427,S0123,ARM1,57.32,female,white,not_hispanic_or_latino,1,673.2,1,336,completed planned treatment,12,0,3,0.997,N,N,N,
03859427,S0124,ARM1,64.13,female,white,hispanic_or_latino,1,680.5,1,336,completed planned treatment,12,0,2,1.0,N,N,N,
03859427,S0125,ARM2,55.88,female,white,not_hispanic_or_latino,1,682.1,1,336,completed planned treatment,12,0,0,1.0,Y,Y,N,
03859427,S0126,ARM1,63.11,male,unknown_or_not_reported,not_hispanic_or_latino,1,685.6,1,336,completed planned treatment,12,0,7,0.997,Y,Y,N,
03859427,S0127,ARM1,69.25,female,white,unknown_or_not_reported,1,698.0,1,336,completed planned treatment,12,0,8,0.994,Y,Y,N,
03859427,S0128,ARM1,49.26,female,white,not_hispanic_or_latino,1,700.2,1,336,completed planned treatment,12,0,1,1.0,N,N,N,
03859427,S0129,ARM1,74.5,male,white,not_hispanic_or_latino,1,712.8,1,225,disease progression,9,0,7,0.991,Y,Y,N,
03859427,S0130,ARM2,57.28,male,black_or_african_american,not_hispanic_or_latino,1,725.0,1,336,completed planned treatment,12,0,2,0.997,N,N,N,
03859427,S0131,ARM1,62.97,male,white,not_hispanic_or_latino,1,730.6,1,336,completed planned treatment,12,0,3,0.997,Y,Y,Y,725
03859427,S0132,ARM2,62.18,male,white,not_hispanic_or_latino,1,733.5,1,336,completed planned treatment,12,0,4,0.995,N,N,N,
03859427,S0133,ARM1,49.98,male,white,not_hispanic_or_latino,1,747.5,1,309,disease progression,12,0,5,0.994,Y,Y,N,
03859427,S0134,ARM1,58.14,male,white,not_hispanic_or_latino,1,751.7,1,336,completed planned treatment,12,0,2,0.997,N,N,N,
03859427,S0135,ARM2,57.26,male,white,hispanic_or_latino,1,754.8,1,336,completed planned treatment,12,0,4,0.997,N,N,N,
03859427,S0136,ARM1,59.83,female,white,not_hispanic_or_latino,1,766.4,1,18,adverse event (registry discontinuation rate),1,0,0,1.0,Y,Y,N,
03859427,S0137,ARM1,72.19,male,white,not_hispanic_or_latino,1,767.3,1,336,completed planned treatment,12,0,3,0.997,N,N,N,
03859427,S0138,ARM1,71.07,male,white,not_hispanic_or_latino,1,779.7,1,253,disease progression,10,0,2,1.0,N,N,N,
03859427,S0139,ARM2,60.65,female,white,not_hispanic_or_latino,1,780.2,1,149,adverse event (registry discontinuation rate),6,0,2,0.994,Y,Y,N,
03859427,S0140,ARM2,59.33,female,white,not_hispanic_or_latino,1,783.1,1,336,completed planned treatment,12,0,1,0.997,N,N,N,
03859427,S0141,ARM1,63.82,male,asian,not_hispanic_or_latino,1,786.5,1,336,completed planned treatment,12,0,2,1.0,N,N,N,
03859427,S0142,ARM2,65.57,male,white,not_hispanic_or_latino,1,788.9,1,336,completed planned treatment,12,0,5,0.997,Y,Y,N,
03859427,S0143,ARM1,52.93,male,asian,not_hispanic_or_latino,1,796.7,1,113,disease progression,5,0,0,1.0,Y,Y,N,
03859427,S0144,ARM1,40.67,male,white,not_hispanic_or_latino,1,797.4,1,336,completed planned treatment,12,0,6,1.0,Y,Y,N,
03859427,S0145,ARM2,44.77,male,white,not_hispanic_or_latino,1,799.2,1,336,completed planned treatment,12,0,2,0.997,N,N,N,
03859427,S0146,ARM2,75.06,male,white,not_hispanic_or_latino,1,799.5,1,336,completed planned treatment,12,0,3,0.997,N,N,N,
03859427,S0147,ARM2,53.47,male,white,not_hispanic_or_latino,1,800.7,1,336,completed planned treatment,12,0,3,0.995,N,N,N,
03859427,S0148,ARM2,54.52,female,black_or_african_american,not_hispanic_or_latino,1,802.4,1,336,completed planned treatment,12,0,3,0.995,Y,Y,N,
03859427,S0149,ARM1,51.23,male,white,not_hispanic_or_latino,1,806.1,1,336,completed planned treatment,12,0,9,0.994,Y,Y,N,
03859427,S0150,ARM2,54.26,male,black_or_african_american,not_hispanic_or_latino,1,811.9,1,336,completed planned treatment,12,0,1,1.0,Y,Y,N,
03859427,S0151,ARM1,63.35,female,white,not_hispanic_or_latino,1,818.3,1,336,completed planned treatment,12,0,5,1.0,Y,Y,N,
03859427,S0152,ARM1,68.31,male,white,not_hispanic_or_latino,1,818.9,1,197,disease progression,8,0,4,0.995,Y,Y,N,
03859427,S0153,ARM1,77.22,male,white,not_hispanic_or_latino,1,820.6,1,336,completed planned treatment,12,0,5,0.994,Y,Y,Y,560
03859427,S0154,ARM2,63.76,female,white,not_hispanic_or_latino,1,822.7,1,336,completed planned treatment,12,0,1,1.0,Y,Y,N,
03859427,S0155,ARM2,65.6,female,white,not_hispanic_or_latino,1,832.7,1,336,completed planned treatment,12,0,3,0.997,Y,Y,N,
03859427,S0156,ARM1,55.63,female,white,not_hispanic_or_latino,1,843.3,1,261,"withdrawal (subject, loss to follow-up or physician decision)",10,0,4,0.992,N,N,N,
03859427,S0157,ARM1,58.09,female,white,not_hispanic_or_latino,1,855.1,1,336,completed planned treatment,12,0,1,1.0,N,N,N,
03859427,S0158,ARM1,61.46,female,white,not_hispanic_or_latino,1,870.4,1,336,completed planned treatment,12,0,3,1.0,N,N,N,
03859427,S0159,ARM1,54.19,male,white,not_hispanic_or_latino,1,871.9,1,57,disease progression,3,0,1,1.0,N,N,N,
03859427,S0160,ARM2,67.82,male,white,not_hispanic_or_latino,1,872.1,1,336,completed planned treatment,12,0,1,1.0,N,N,N,
03859427,S0161,ARM2,36.69,male,white,not_hispanic_or_latino,1,873.5,1,173,"withdrawal (subject, loss to follow-up or physician decision)",7,0,1,0.995,N,N,N,
03859427,S0162,ARM1,75.21,male,white,not_hispanic_or_latino,1,880.6,1,336,completed planned treatment,12,0,4,0.997,Y,Y,N,
03859427,S0163,ARM1,58.69,male,white,not_hispanic_or_latino,1,881.3,1,336,completed planned treatment,12,0,6,0.997,Y,Y,N,
03859427,S0164,ARM2,64.65,female,white,not_hispanic_or_latino,1,885.2,1,336,completed planned treatment,12,0,0,1.0,Y,Y,N,
03859427,S0165,ARM2,57.58,female,black_or_african_american,not_hispanic_or_latino,1,891.7,1,336,completed planned treatment,12,0,1,0.997,Y,Y,N,
03859427,S0166,ARM1,62.37,male,white,not_hispanic_or_latino,1,892.2,1,169,disease progression,7,0,4,0.994,Y,Y,N,
03859427,S0167,ARM2,68.02,female,black_or_african_american,not_hispanic_or_latino,1,892.9,1,336,completed planned treatment,12,0,2,0.997,Y,Y,N,
03859427,S0168,ARM1,46.54,female,white,not_hispanic_or_latino,1,896.4,1,336,completed planned treatment,12,0,4,1.0,N,N,N,
03859427,S0169,ARM1,62.53,male,white,not_hispanic_or_latino,1,905.8,1,45,"withdrawal (subject, loss to follow-up or physician decision)",2,0,12,0.961,Y,Y,N,
03859427,S0170,ARM1,55.33,male,white,not_hispanic_or_latino,1,906.2,1,336,completed planned treatment,12,0,4,1.0,Y,Y,N,
03859427,S0171,ARM2,81.92,female,black_or_african_american,not_hispanic_or_latino,1,908.0,1,336,completed planned treatment,12,0,2,0.997,Y,Y,Y,411
03859427,S0172,ARM1,81.91,female,white,not_hispanic_or_latino,1,908.9,1,336,completed planned treatment,12,0,2,1.0,N,N,N,
03859427,S0173,ARM1,49.11,female,white,not_hispanic_or_latino,1,924.6,1,336,completed planned treatment,12,0,1,1.0,N,N,N,
03859427,S0174,ARM1,73.31,female,white,not_hispanic_or_latino,1,937.1,1,141,disease progression,6,0,2,1.0,N,N,N,
03859427,S0175,ARM1,76.95,male,white,not_hispanic_or_latino,1,946.8,1,336,completed planned treatment,12,0,2,1.0,N,N,N,
03859427,S0176,ARM2,77.09,female,white,not_hispanic_or_latino,1,987.9,1,336,completed planned treatment,12,0,2,1.0,Y,Y,N,
03859427,S0177,ARM2,69.57,female,white,not_hispanic_or_latino,1,989.1,1,336,completed planned treatment,12,0,2,0.997,Y,Y,N,
03859427,S0178,ARM2,55.37,female,black_or_african_american,not_hispanic_or_latino,1,992.4,1,336,completed planned treatment,12,0,1,0.997,Y,Y,N,
03859427,S0179,ARM1,61.81,male,asian,not_hispanic_or_latino,1,997.3,1,336,completed planned treatment,12,0,1,0.997,N,N,N,
03859427,S0180,ARM1,64.1,male,white,not_hispanic_or_latino,1,1004.0,1,336,completed planned treatment,12,0,5,1.0,Y,Y,N,
03859427,S0181,ARM1,48.25,male,white,not_hispanic_or_latino,1,1007.7,1,225,disease progression,9,0,1,1.0,N,N,N,
03859427,S0182,ARM2,59.69,male,white,not_hispanic_or_latino,1,1013.1,1,336,completed planned treatment,12,0,5,1.0,Y,Y,N,
03859427,S0183,ARM2,79.13,male,more_than_one_race,not_hispanic_or_latino,1,1016.8,1,336,completed planned treatment,12,0,1,1.0,N,N,N,
03859427,S0184,ARM2,51.77,female,white,not_hispanic_or_latino,1,1025.2,1,336,completed planned treatment,12,0,3,0.995,Y,Y,N,
03859427,S0185,ARM1,59.2,female,white,not_hispanic_or_latino,1,1027.0,1,336,completed planned treatment,12,0,2,0.997,N,N,N,
03859427,S0186,ARM2,72.13,male,white,not_hispanic_or_latino,1,1028.2,1,336,completed planned treatment,12,0,2,1.0,Y,Y,N,
03859427,S0187,ARM2,52.9,female,black_or_african_american,not_hispanic_or_latino,1,1030.0,1,336,completed planned treatment,12,0,0,1.0,N,N,N,
03859427,S0188,ARM2,71.83,male,asian,not_hispanic_or_latino,1,1056.3,1,336,completed planned treatment,12,0,3,0.997,Y,Y,N,
03859427,S0189,ARM2,64.88,male,white,not_hispanic_or_latino,1,1075.9,1,336,completed planned treatment,12,0,1,1.0,N,N,N,
03859427,S0190,ARM2,59.29,female,white,not_hispanic_or_latino,1,1079.1,1,336,completed planned treatment,12,0,6,0.989,Y,Y,N,
03859427,S0191,ARM2,65.75,male,asian,not_hispanic_or_latino,1,1079.7,1,281,disease progression,11,0,3,1.0,N,N,N,
03859427,S0192,ARM2,57.5,male,white,not_hispanic_or_latino,1,1080.1,1,336,completed planned treatment,12,0,2,0.995,N,N,N,
03859427,S0193,ARM1,65.16,female,white,not_hispanic_or_latino,1,1089.1,1,336,completed planned treatment,12,0,8,0.997,Y,Y,N,
03859427,S0194,ARM1,65.16,female,black_or_african_american,not_hispanic_or_latino,1,1093.0,1,336,completed planned treatment,12,0,4,1.0,Y,Y,N,
03859427,S0195,ARM2,64.96,male,black_or_african_american,not_hispanic_or_latino,1,1100.5,1,336,completed planned treatment,12,0,1,0.997,N,N,N,
03859427,S0196,ARM2,73.13,male,white,not_hispanic_or_latino,1,1100.9,1,336,completed planned treatment,12,0,4,0.997,Y,Y,N,
03859427,S0197,ARM2,63.92,female,asian,not_hispanic_or_latino,1,1101.2,1,336,completed planned treatment,12,0,1,0.997,Y,Y,N,
03859427,S0198,ARM2,65.06,female,white,not_hispanic_or_latino,1,1104.5,1,336,completed planned treatment,12,0,2,1.0,N,N,N,
03859427,S0199,ARM1,34.46,male,white,not_hispanic_or_latino,1,1117.2,1,212,adverse event (registry discontinuation rate),8,0,1,1.0,N,N,N,
03859427,S0200,ARM2,59.03,male,white,not_hispanic_or_latino,1,1120.0,1,336,completed planned treatment,12,0,1,1.0,N,N,N,
03859427,S0201,ARM1,36.8,female,black_or_african_american,not_hispanic_or_latino,1,1123.5,1,336,completed planned treatment,12,0,5,0.997,Y,Y,N,
03859427,S0202,ARM1,67.16,female,white,not_hispanic_or_latino,1,1127.4,1,336,completed planned treatment,12,0,2,1.0,N,N,N,
03859427,S0203,ARM2,59.19,male,white,not_hispanic_or_latino,1,1131.6,1,336,completed planned treatment,12,0,5,0.995,Y,Y,N,
03859427,S0204,ARM2,58.14,male,white,not_hispanic_or_latino,1,1134.3,1,336,completed planned treatment,12,0,4,1.0,Y,Y,N,
03859427,S0205,ARM2,66.62,male,white,not_hispanic_or_latino,1,1135.1,1,281,disease progression,11,0,3,0.997,N,N,N,
03859427,S0206,ARM2,68.0,female,white,not_hispanic_or_latino,1,1141.6,1,113,disease progression,5,0,1,1.0,Y,Y,N,
03859427,S0207,ARM2,42.98,male,white,not_hispanic_or_latino,1,1152.2,1,336,completed planned treatment,12,0,4,0.997,Y,Y,N,
03859427,S0208,ARM1,59.69,female,white,not_hispanic_or_latino,1,1154.1,1,85,disease progression,4,0,6,1.0,Y,Y,N,
03859427,S0209,ARM1,80.77,female,white,not_hispanic_or_latino,1,1162.1,1,336,completed planned treatment,12,0,4,0.994,Y,Y,N,
03859427,S0210,ARM1,79.19,female,white,not_hispanic_or_latino,1,1165.4,1,336,completed planned treatment,12,0,5,0.994,Y,Y,N,
03859427,S0211,ARM1,59.58,female,white,not_hispanic_or_latino,1,1171.8,1,336,completed planned treatment,12,0,2,0.994,Y,Y,N,
03859427,S0212,ARM1,68.55,male,white,not_hispanic_or_latino,1,1172.3,1,336,completed planned treatment,12,0,2,1.0,N,N,N,
03859427,S0213,ARM2,59.65,female,white,not_hispanic_or_latino,1,1174.4,1,336,completed planned treatment,12,0,1,0.997,N,N,N,
03859427,S0214,ARM2,72.53,female,white,not_hispanic_or_latino,1,1182.4,1,336,completed planned treatment,12,0,2,1.0,N,N,Y,374
03859427,S0215,ARM2,65.04,male,more_than_one_race,not_hispanic_or_latino,1,1186.9,1,336,completed planned treatment,12,0,0,1.0,Y,Y,N,
03859427,S0216,ARM1,72.74,female,black_or_african_american,not_hispanic_or_latino,1,1191.1,1,336,completed planned treatment,12,0,2,1.0,N,N,N,
03859427,S0217,ARM1,77.54,male,asian,not_hispanic_or_latino,1,1192.0,1,336,completed planned treatment,12,0,4,1.0,Y,Y,N,
03859427,S0218,ARM2,67.36,female,asian,not_hispanic_or_latino,1,1206.3,1,336,completed planned treatment,12,0,3,0.997,Y,Y,N,
03859427,S0219,ARM1,61.89,female,white,not_hispanic_or_latino,1,1206.6,1,336,completed planned treatment,12,0,3,1.0,N,N,N,
03859427,S0220,ARM1,54.5,female,white,not_hispanic_or_latino,1,1211.9,1,197,disease progression,8,0,3,0.995,N,N,N,
03859427,S0221,ARM1,59.86,female,white,not_hispanic_or_latino,1,1216.3,1,309,disease progression,12,0,2,1.0,N,N,N,
03859427,S0222,ARM2,77.11,male,white,not_hispanic_or_latino,1,1218.1,1,336,completed planned treatment,12,0,1,1.0,N,N,N,
03859427,S0223,ARM2,78.74,female,white,not_hispanic_or_latino,1,1219.5,1,336,completed planned treatment,12,0,2,0.995,N,N,N,
03859427,S0224,ARM2,68.69,female,white,not_hispanic_or_latino,1,1219.9,1,253,disease progression,10,0,2,0.996,N,N,N,
03859427,S0225,ARM1,66.01,female,white,not_hispanic_or_latino,1,1220.4,1,336,completed planned treatment,12,0,5,1.0,Y,Y,N,
03859427,S0226,ARM2,71.76,male,white,not_hispanic_or_latino,1,1223.3,1,336,completed planned treatment,12,0,0,1.0,Y,Y,N,
03859427,S0227,ARM1,67.22,female,asian,not_hispanic_or_latino,1,1224.9,1,336,completed planned treatment,12,0,4,1.0,Y,Y,N,
03859427,S0228,ARM1,50.37,female,white,not_hispanic_or_latino,1,1231.6,1,203,adverse event (registry discontinuation rate),8,0,4,1.0,Y,Y,N,
03859427,S0229,ARM1,43.65,male,white,not_hispanic_or_latino,1,1235.9,1,336,completed planned treatment,12,0,2,1.0,N,N,N,
03859427,S0230,ARM2,66.15,male,white,not_hispanic_or_latino,1,1246.4,1,281,disease progression,11,0,2,0.997,N,N,N,
03859427,S0231,ARM2,60.99,female,white,not_hispanic_or_latino,1,1258.0,1,336,completed planned treatment,12,0,2,1.0,Y,Y,N,
03859427,S0232,ARM2,47.92,male,black_or_african_american,not_hispanic_or_latino,1,1258.9,1,336,completed planned treatment,12,0,5,0.997,Y,Y,N,
03859427,S0233,ARM2,67.74,male,asian,not_hispanic_or_latino,1,1261.4,1,336,completed planned treatment,12,0,3,1.0,Y,Y,N,
03859427,S0234,ARM2,81.45,female,white,not_hispanic_or_latino,1,1264.1,1,336,completed planned treatment,12,0,3,0.997,N,N,N,
03859427,S0235,ARM2,58.52,female,white,not_hispanic_or_latino,1,1268.6,1,336,completed planned treatment,12,0,2,1.0,N,N,N,
03859427,S0236,ARM2,65.8,male,unknown_or_not_reported,not_hispanic_or_latino,1,1281.1,1,336,completed planned treatment,12,0,1,1.0,N,N,N,
03859427,S0237,ARM2,62.2,male,white,not_hispanic_or_latino,1,1281.5,1,336,completed planned treatment,12,0,2,1.0,N,N,N,
03859427,S0238,ARM2,54.87,male,white,not_hispanic_or_latino,1,1295.4,1,336,completed planned treatment,12,0,2,1.0,N,N,N,
03859427,S0239,ARM1,66.66,female,asian,not_hispanic_or_latino,1,1296.8,1,336,completed planned treatment,12,0,2,0.997,N,N,N,
03859427,S0240,ARM1,70.3,male,white,not_hispanic_or_latino,1,1297.7,1,336,completed planned treatment,12,0,4,1.0,Y,Y,N,
03859427,S0241,ARM1,82.03,male,white,not_hispanic_or_latino,1,1302.7,1,113,disease progression,5,0,1,1.0,N,N,N,
03859427,S0242,ARM1,58.22,male,black_or_african_american,not_hispanic_or_latino,1,1308.0,1,29,disease progression,2,0,3,0.968,Y,Y,N,
03859427,S0243,ARM2,63.17,female,white,not_hispanic_or_latino,1,1310.5,1,336,completed planned treatment,12,0,2,0.997,Y,Y,N,
03859427,S0244,ARM2,46.52,male,white,not_hispanic_or_latino,1,1330.9,1,336,completed planned treatment,12,0,3,0.997,Y,Y,N,
03859427,S0245,ARM2,48.75,female,unknown_or_not_reported,hispanic_or_latino,1,1333.8,1,336,completed planned treatment,12,0,2,1.0,Y,Y,N,
03859427,S0246,ARM2,64.62,male,white,not_hispanic_or_latino,1,1336.4,1,336,completed planned treatment,12,0,3,0.995,Y,Y,N,
03859427,S0247,ARM1,75.51,male,black_or_african_american,not_hispanic_or_latino,1,1343.7,1,336,completed planned treatment,12,0,2,1.0,N,N,N,
03859427,S0248,ARM2,60.79,female,white,not_hispanic_or_latino,1,1348.9,1,144,death,6,0,2,1.0,N,N,Y,144
03859427,S0249,ARM2,44.81,female,unknown_or_not_reported,not_hispanic_or_latino,1,1349.4,1,336,completed planned treatment,12,0,2,1.0,Y,Y,N,
03859427,S0250,ARM2,65.77,male,white,not_hispanic_or_latino,1,1358.7,1,336,completed planned treatment,12,0,1,1.0,N,N,N,
03859427,S0251,ARM1,51.71,male,white,not_hispanic_or_latino,1,1358.8,1,336,completed planned treatment,12,0,2,1.0,N,N,N,
03859427,S0252,ARM1,57.1,female,white,not_hispanic_or_latino,1,1361.4,1,336,completed planned treatment,12,0,4,1.0,Y,Y,N,
03859427,S0253,ARM2,60.77,male,white,not_hispanic_or_latino,1,1365.7,1,336,completed planned treatment,12,0,2,1.0,Y,Y,N,
03859427,S0254,ARM1,72.82,male,white,not_hispanic_or_latino,1,1367.9,1,253,disease progression,10,0,3,1.0,N,N,N,
03859427,S0255,ARM2,72.04,female,white,not_hispanic_or_latino,1,1368.7,1,336,completed planned treatment,12,0,1,1.0,N,N,N,
03859427,S0256,ARM2,64.99,male,white,not_hispanic_or_latino,1,1382.8,1,336,completed planned treatment,12,0,1,1.0,Y,Y,N,
03859427,S0257,ARM2,65.26,female,white,not_hispanic_or_latino,1,1389.3,1,336,completed planned treatment,12,0,3,0.997,Y,Y,N,
03859427,S0258,ARM2,59.25,female,white,not_hispanic_or_latino,1,1399.6,1,85,disease progression,4,0,2,1.0,N,N,N,
03859427,S0259,ARM2,56.73,male,white,not_hispanic_or_latino,1,1400.2,1,197,disease progression,8,0,3,1.0,Y,Y,N,
03859427,S0260,ARM1,55.38,male,white,not_hispanic_or_latino,1,1400.5,1,336,completed planned treatment,12,0,4,1.0,Y,Y,N,
03859427,S0261,ARM2,50.32,female,white,unknown_or_not_reported,1,1402.5,1,336,completed planned treatment,12,0,2,0.997,Y,Y,N,
03859427,S0262,ARM1,56.03,male,white,not_hispanic_or_latino,1,1405.5,1,336,completed planned treatment,12,0,1,1.0,N,N,N,
03859427,S0263,ARM1,38.69,female,white,not_hispanic_or_latino,1,1407.3,1,336,completed planned treatment,12,0,4,1.0,N,N,N,
03859427,S0264,ARM1,56.72,male,unknown_or_not_reported,not_hispanic_or_latino,1,1435.3,1,57,disease progression,3,0,2,1.0,Y,Y,N,
03859427,S0265,ARM1,53.15,female,asian,not_hispanic_or_latino,1,1436.7,1,336,completed planned treatment,12,0,1,1.0,N,N,N,
03859427,S0266,ARM1,72.99,female,unknown_or_not_reported,not_hispanic_or_latino,1,1437.9,1,123,adverse event (registry discontinuation rate),5,0,1,1.0,N,N,N,
03859427,S0267,ARM2,70.15,male,asian,hispanic_or_latino,1,1449.0,1,336,completed planned treatment,12,0,2,1.0,Y,Y,N,
03859427,S0268,ARM1,71.32,female,black_or_african_american,not_hispanic_or_latino,1,1452.5,1,308,adverse event (registry discontinuation rate),11,0,2,0.997,N,N,N,
03859427,S0269,ARM2,65.63,female,black_or_african_american,not_hispanic_or_latino,1,1457.8,1,336,completed planned treatment,12,0,0,1.0,N,N,N,
03859427,S0270,ARM2,62.37,male,white,not_hispanic_or_latino,1,1461.5,1,225,disease progression,9,0,2,0.992,Y,Y,N,
03859427,S0271,ARM1,62.37,male,white,not_hispanic_or_latino,1,1469.4,1,336,completed planned treatment,12,0,2,0.997,N,N,N,
03859427,S0272,ARM2,60.94,male,white,not_hispanic_or_latino,1,1477.7,1,85,disease progression,4,0,2,1.0,Y,Y,N,
03859427,S0273,ARM1,73.01,male,white,not_hispanic_or_latino,1,1481.2,1,336,completed planned treatment,12,0,3,0.997,N,N,N,
03859427,S0274,ARM2,54.82,male,white,not_hispanic_or_latino,1,1485.9,1,336,completed planned treatment,12,0,2,1.0,Y,Y,N,
03859427,S0275,ARM2,62.71,female,white,not_hispanic_or_latino,1,1486.2,1,336,completed planned treatment,12,0,0,1.0,N,N,N,
03859427,S0276,ARM2,61.64,male,white,not_hispanic_or_latino,1,1491.1,1,281,disease progression,11,0,2,1.0,N,N,N,
03859427,S0277,ARM2,70.51,female,white,not_hispanic_or_latino,1,1492.1,1,336,completed planned treatment,12,0,3,0.997,Y,Y,N,
03859427,S0278,ARM2,47.39,male,white,not_hispanic_or_latino,1,1492.7,1,336,completed planned treatment,12,0,1,1.0,N,N,N,
03859427,S0279,ARM2,58.0,female,white,hispanic_or_latino,1,1492.9,1,142,"withdrawal (subject, loss to follow-up or physician decision)",6,0,0,1.0,Y,Y,N,
03859427,S0280,ARM2,67.83,female,asian,hispanic_or_latino,1,1495.2,1,336,completed planned treatment,12,0,2,0.997,N,N,N,
03859427,S0281,ARM2,61.48,male,white,not_hispanic_or_latino,1,1507.4,1,336,completed planned treatment,12,0,1,0.997,Y,Y,N,
03859427,S0282,ARM2,69.85,female,white,not_hispanic_or_latino,1,1509.5,1,336,completed planned treatment,12,0,2,1.0,Y,Y,N,
03859427,S0283,ARM1,53.53,male,black_or_african_american,not_hispanic_or_latino,1,1512.1,1,336,completed planned treatment,12,0,6,0.997,Y,Y,N,
03859427,S0284,ARM2,63.51,female,unknown_or_not_reported,not_hispanic_or_latino,1,1523.5,1,336,completed planned treatment,12,0,2,0.992,Y,Y,N,
03859427,S0285,ARM2,70.08,female,white,not_hispanic_or_latino,1,1531.9,1,336,completed planned treatment,12,0,2,1.0,Y,Y,N,
03859427,S0286,ARM1,74.79,male,white,not_hispanic_or_latino,1,1535.2,1,187,adverse event (registry discontinuation rate),7,0,5,0.995,Y,Y,N,
03859427,S0287,ARM2,58.22,female,white,not_hispanic_or_latino,1,1539.5,1,336,completed planned treatment,12,0,0,1.0,Y,Y,N,
03859427,S0288,ARM1,65.25,male,white,not_hispanic_or_latino,1,1543.4,1,274,"withdrawal (subject, loss to follow-up or physician decision)",10,0,5,0.996,Y,Y,N,
03859427,S0289,ARM1,67.5,female,white,not_hispanic_or_latino,1,1553.0,1,336,completed planned treatment,12,0,5,0.997,Y,Y,N,
03859427,S0290,ARM1,69.46,male,white,not_hispanic_or_latino,1,1559.8,1,245,"withdrawal (subject, loss to follow-up or physician decision)",9,0,3,1.0,N,N,N,
03859427,S0291,ARM1,67.76,female,white,not_hispanic_or_latino,1,1566.3,1,336,completed planned treatment,12,0,7,0.997,Y,Y,N,
03859427,S0292,ARM1,73.65,male,white,not_hispanic_or_latino,1,1571.9,1,169,disease progression,7,0,9,0.982,Y,Y,N,
03859427,S0293,ARM1,69.75,male,white,hispanic_or_latino,1,1573.2,1,336,completed planned treatment,12,0,3,0.997,Y,Y,N,
03859427,S0294,ARM2,70.62,male,white,hispanic_or_latino,1,1574.6,1,336,completed planned treatment,12,0,3,0.997,N,N,N,
03859427,S0295,ARM2,49.21,female,white,not_hispanic_or_latino,1,1579.9,1,309,disease progression,12,0,1,0.997,N,N,N,
03859427,S0296,ARM2,45.02,male,white,not_hispanic_or_latino,1,1581.5,1,29,disease progression,2,0,0,1.0,Y,Y,N,
03859427,S0297,ARM1,69.53,male,white,not_hispanic_or_latino,1,1582.3,1,336,completed planned treatment,12,0,1,1.0,N,N,N,
03859427,S0298,ARM2,63.66,female,asian,unknown_or_not_reported,1,1586.8,1,336,completed planned treatment,12,0,1,1.0,Y,Y,N,
03859427,S0299,ARM2,57.23,female,white,not_hispanic_or_latino,1,1591.2,1,336,completed planned treatment,12,0,1,0.997,N,N,N,
03859427,S0300,ARM2,63.29,female,white,not_hispanic_or_latino,1,1591.7,1,336,completed planned treatment,12,0,3,0.997,Y,Y,N,
03859427,S0301,ARM2,64.33,male,white,not_hispanic_or_latino,1,1597.0,1,336,completed planned treatment,12,0,4,0.997,Y,Y,N,
03859427,S0302,ARM2,49.05,female,white,not_hispanic_or_latino,1,1598.5,1,285,adverse event (registry discontinuation rate),11,0,0,1.0,N,N,N,
03859427,S0303,ARM1,47.23,female,white,not_hispanic_or_latino,1,1600.9,1,57,disease progression,3,0,2,0.983,Y,Y,N,
03859427,S0304,ARM1,60.74,male,white,not_hispanic_or_latino,1,1601.3,1,336,completed planned treatment,12,0,2,0.997,N,N,N,
03859427,S0305,ARM2,54.98,male,white,not_hispanic_or_latino,1,1602.4,1,336,completed planned treatment,12,0,3,0.997,N,N,N,
03859427,S0306,ARM1,54.43,female,white,not_hispanic_or_latino,1,1604.3,1,336,completed planned treatment,12,0,2,1.0,N,N,N,
03859427,S0307,ARM2,66.14,female,white,not_hispanic_or_latino,1,1606.0,1,336,completed planned treatment,12,0,4,0.995,Y,Y,N,
03859427,S0308,ARM2,66.54,female,asian,not_hispanic_or_latino,1,1613.6,1,82,"withdrawal (subject, loss to follow-up or physician decision)",3,0,0,1.0,Y,Y,N,
03859427,S0309,ARM2,52.9,female,asian,not_hispanic_or_latino,1,1614.8,1,141,disease progression,6,0,0,1.0,Y,Y,N,
03859427,S0310,ARM1,62.3,male,white,not_hispanic_or_latino,1,1614.9,1,253,disease progression,10,0,4,0.996,Y,Y,Y,606
03859427,S0311,ARM1,45.7,male,white,not_hispanic_or_latino,1,1619.6,1,336,completed planned treatment,12,0,1,1.0,N,N,N,
03859427,S0312,ARM1,69.34,male,asian,not_hispanic_or_latino,1,1622.7,1,336,completed planned treatment,12,0,1,1.0,N,N,N,
03859427,S0313,ARM1,37.96,male,white,not_hispanic_or_latino,1,1626.3,1,110,adverse event (registry discontinuation rate),4,0,13,0.973,Y,Y,N,
03859427,S0314,ARM2,59.87,female,white,not_hispanic_or_latino,1,1633.7,1,336,completed planned treatment,12,0,4,0.997,Y,Y,N,
03859427,S0315,ARM1,73.87,female,white,not_hispanic_or_latino,1,1643.7,1,336,completed planned treatment,12,0,1,1.0,N,N,N,
03859427,S0316,ARM1,61.2,female,white,not_hispanic_or_latino,1,1646.6,1,336,completed planned treatment,12,0,15,0.985,Y,Y,N,
03859427,S0317,ARM2,52.0,male,white,not_hispanic_or_latino,1,1656.5,1,113,death,5,0,0,1.0,N,N,Y,113
03859427,S0318,ARM1,73.46,male,white,not_hispanic_or_latino,1,1669.4,1,336,completed planned treatment,12,0,4,0.997,Y,Y,N,
03859427,S0319,ARM1,44.42,male,white,not_hispanic_or_latino,1,1675.2,1,197,disease progression,8,0,3,0.995,Y,Y,N,
03859427,S0320,ARM2,73.57,female,white,not_hispanic_or_latino,1,1678.4,1,82,"withdrawal (subject, loss to follow-up or physician decision)",3,0,1,1.0,N,N,N,
03859427,S0321,ARM2,84.21,male,white,not_hispanic_or_latino,1,1688.1,1,336,completed planned treatment,12,0,4,1.0,Y,Y,N,
03859427,S0322,ARM2,69.47,female,white,not_hispanic_or_latino,1,1702.9,1,336,completed planned treatment,12,0,3,0.997,Y,Y,N,
03859427,S0323,ARM1,72.3,female,white,not_hispanic_or_latino,1,1706.0,1,336,completed planned treatment,12,0,3,1.0,N,N,N,
03859427,S0324,ARM1,50.99,female,white,not_hispanic_or_latino,1,1706.4,1,57,"withdrawal (subject, loss to follow-up or physician decision)",3,0,2,0.983,N,N,N,
03859427,S0325,ARM2,68.75,male,white,not_hispanic_or_latino,1,1713.6,1,336,completed planned treatment,12,0,1,1.0,Y,Y,N,
03859427,S0326,ARM2,64.01,female,white,not_hispanic_or_latino,1,1724.3,1,42,"withdrawal (subject, loss to follow-up or physician decision)",2,0,3,0.98,N,N,N,
03859427,S0327,ARM1,59.79,male,black_or_african_american,not_hispanic_or_latino,1,1728.1,1,336,completed planned treatment,12,0,1,1.0,N,N,Y,492
03859427,S0328,ARM1,51.32,male,black_or_african_american,not_hispanic_or_latino,1,1729.0,1,336,completed planned treatment,12,0,4,1.0,N,N,N,
03859427,S0329,ARM2,61.42,female,black_or_african_american,not_hispanic_or_latino,1,1739.5,1,336,completed planned treatment,12,0,4,0.997,Y,Y,N,
03859427,S0330,ARM2,65.98,female,white,not_hispanic_or_latino,1,1740.0,1,29,disease progression,2,0,2,0.941,Y,Y,N,
03859427,S0331,ARM2,61.73,male,white,not_hispanic_or_latino,1,1757.5,1,336,completed planned treatment,12,0,0,1.0,Y,Y,N,
03859427,S0332,ARM2,65.92,female,white,not_hispanic_or_latino,1,1764.8,1,99,adverse event (registry discontinuation rate),4,0,2,0.991,Y,Y,N,
03859427,S0333,ARM2,53.57,female,asian,not_hispanic_or_latino,1,1774.5,1,222,adverse event (registry discontinuation rate),8,0,2,1.0,Y,Y,N,
03859427,S0334,ARM1,67.65,male,white,not_hispanic_or_latino,1,1774.7,1,336,completed planned treatment,12,0,2,0.994,N,N,N,
03859427,S0335,ARM1,65.59,female,black_or_african_american,not_hispanic_or_latino,1,1775.1,1,336,completed planned treatment,12,0,4,0.994,Y,Y,N,
03859427,S0336,ARM1,71.22,male,white,not_hispanic_or_latino,1,1776.3,1,336,completed planned treatment,12,0,4,0.997,Y,Y,N,
03859427,S0337,ARM1,61.82,male,black_or_african_american,not_hispanic_or_latino,1,1813.8,1,336,completed planned treatment,12,0,1,1.0,N,N,N,
03859427,S0338,ARM2,76.81,male,white,not_hispanic_or_latino,1,1822.1,1,113,disease progression,5,0,2,1.0,Y,Y,N,
03859427,S0339,ARM1,60.97,male,white,not_hispanic_or_latino,1,1828.8,1,57,disease progression,3,0,1,1.0,N,N,Y,517
03859427,S0340,ARM2,71.27,male,white,not_hispanic_or_latino,1,1840.9,1,281,disease progression,11,0,0,1.0,N,N,N,
03859427,S0341,ARM2,53.6,male,white,not_hispanic_or_latino,1,1841.1,1,336,completed planned treatment,12,0,1,1.0,Y,Y,N,
03859427,S0342,ARM1,42.12,male,asian,not_hispanic_or_latino,1,1844.7,1,336,completed planned treatment,12,0,5,0.997,Y,Y,N,
03859427,S0343,ARM2,61.07,male,white,not_hispanic_or_latino,1,1847.6,1,124,death,5,0,3,1.0,Y,Y,Y,124
03859427,S0344,ARM2,65.02,male,white,not_hispanic_or_latino,1,1850.0,1,336,completed planned treatment,12,0,3,1.0,N,N,N,
03859427,S0345,ARM1,64.0,male,unknown_or_not_reported,not_hispanic_or_latino,1,1856.9,1,336,completed planned treatment,12,0,3,1.0,Y,Y,N,
03859427,S0346,ARM1,89.0,female,white,not_hispanic_or_latino,1,1859.6,1,336,completed planned treatment,12,0,3,1.0,Y,Y,N,
03859427,S0347,ARM2,66.85,female,black_or_african_american,not_hispanic_or_latino,1,1861.9,1,336,completed planned treatment,12,0,2,1.0,N,N,N,
03859427,S0348,ARM1,81.78,female,black_or_african_american,not_hispanic_or_latino,1,1865.5,1,336,completed planned treatment,12,0,1,1.0,N,N,N,
03859427,S0349,ARM2,75.12,male,asian,not_hispanic_or_latino,1,1868.1,1,48,"withdrawal (subject, loss to follow-up or physician decision)",2,0,0,1.0,N,N,N,
03859427,S0350,ARM1,66.38,female,unknown_or_not_reported,not_hispanic_or_latino,1,1870.7,1,336,completed planned treatment,12,0,3,1.0,N,N,N,
03859427,S0351,ARM1,66.65,male,white,not_hispanic_or_latino,1,1873.8,1,336,completed planned treatment,12,0,4,1.0,Y,Y,N,
03859427,S0352,ARM2,72.42,male,black_or_african_american,not_hispanic_or_latino,1,1878.5,1,336,completed planned treatment,12,0,3,0.997,Y,Y,N,
03859427,S0353,ARM1,60.41,female,white,not_hispanic_or_latino,1,1882.3,1,197,disease progression,8,0,5,0.995,Y,Y,N,
03859427,S0354,ARM2,68.58,male,white,not_hispanic_or_latino,1,1889.1,1,336,completed planned treatment,12,0,4,0.997,Y,Y,N,
03859427,S0355,ARM1,63.85,female,white,not_hispanic_or_latino,1,1899.1,1,336,completed planned treatment,12,0,3,1.0,N,N,Y,422
03859427,S0356,ARM2,59.09,male,white,not_hispanic_or_latino,1,1903.4,1,336,completed planned treatment,12,0,2,1.0,N,N,N,
03859427,S0357,ARM2,57.82,female,white,not_hispanic_or_latino,1,1906.6,1,309,disease progression,12,0,2,0.997,N,N,N,
03859427,S0358,ARM1,46.87,male,white,not_hispanic_or_latino,1,1913.8,1,336,completed planned treatment,12,0,2,1.0,N,N,N,
03859427,S0359,ARM2,65.78,female,white,not_hispanic_or_latino,1,1919.8,1,278,"withdrawal (subject, loss to follow-up or physician decision)",10,0,2,1.0,N,N,N,
03859427,S0360,ARM1,47.77,male,white,not_hispanic_or_latino,1,1945.1,1,336,completed planned treatment,12,0,3,1.0,N,N,N,
03859427,S0361,ARM1,65.07,male,white,not_hispanic_or_latino,1,1945.3,1,113,disease progression,5,0,5,1.0,Y,Y,N,
03859427,S0362,ARM2,64.28,male,asian,not_hispanic_or_latino,1,1956.6,1,336,completed planned treatment,12,0,1,1.0,N,N,N,
03859427,S0363,ARM1,72.31,female,white,not_hispanic_or_latino,1,1956.8,1,336,completed planned treatment,12,0,2,1.0,N,N,N,
03859427,S0364,ARM2,66.31,male,white,not_hispanic_or_latino,1,1962.4,1,57,disease progression,3,0,1,0.985,Y,Y,N,
03859427,S0365,ARM1,59.94,male,unknown_or_not_reported,not_hispanic_or_latino,1,1963.8,1,336,completed planned treatment,12,0,4,0.994,Y,Y,N,
03859427,S0366,ARM1,65.36,female,white,not_hispanic_or_latino,1,1963.8,1,191,adverse event (registry discontinuation rate),7,0,2,0.995,N,N,N,
03859427,S0367,ARM2,54.07,female,white,not_hispanic_or_latino,1,1967.2,1,197,disease progression,8,0,0,1.0,N,N,N,
03859427,S0368,ARM2,41.3,male,white,not_hispanic_or_latino,1,1976.2,1,336,completed planned treatment,12,0,0,1.0,Y,Y,N,
03859427,S0369,ARM1,58.26,male,white,not_hispanic_or_latino,1,1979.8,1,280,death,10,0,1,1.0,N,N,Y,280
03859427,S0370,ARM1,65.95,male,white,not_hispanic_or_latino,1,1987.0,1,336,completed planned treatment,12,0,3,1.0,Y,Y,N,
03859427,S0371,ARM2,52.69,female,asian,hispanic_or_latino,1,1992.5,1,336,completed planned treatment,12,0,3,1.0,N,N,N,
03859427,S0372,ARM1,60.47,male,white,not_hispanic_or_latino,1,2002.6,1,309,disease progression,12,0,1,1.0,N,N,N,
03859427,S0373,ARM1,48.81,male,white,unknown_or_not_reported,1,2006.2,1,336,completed planned treatment,12,0,4,0.994,Y,Y,Y,430
03859427,S0374,ARM1,50.65,male,white,not_hispanic_or_latino,1,2009.2,1,336,completed planned treatment,12,0,2,0.997,N,N,N,
03859427,S0375,ARM2,63.93,female,white,not_hispanic_or_latino,1,2009.3,1,160,death,6,0,0,1.0,Y,Y,Y,160
03859427,S0376,ARM2,64.6,female,white,unknown_or_not_reported,1,2020.7,1,336,completed planned treatment,12,0,4,0.995,N,N,N,
03859427,S0377,ARM1,59.99,male,unknown_or_not_reported,not_hispanic_or_latino,1,2027.5,1,197,disease progression,8,0,2,1.0,N,N,N,
03859427,S0378,ARM2,41.58,female,white,not_hispanic_or_latino,1,2028.1,1,336,completed planned treatment,12,0,4,1.0,Y,Y,N,
03859427,S0379,ARM1,72.98,female,white,not_hispanic_or_latino,1,2029.1,1,336,completed planned treatment,12,0,5,1.0,Y,Y,N,
03859427,S0380,ARM1,73.55,female,white,not_hispanic_or_latino,1,2029.5,1,336,completed planned treatment,12,0,7,0.991,Y,Y,N,
03859427,S0381,ARM2,45.95,female,asian,not_hispanic_or_latino,1,2035.7,1,29,disease progression,2,0,1,0.971,Y,Y,N,
03859427,S0382,ARM1,63.96,female,white,not_hispanic_or_latino,1,2042.9,1,336,completed planned treatment,12,0,5,0.997,Y,Y,N,
03859427,S0383,ARM2,67.78,male,white,not_hispanic_or_latino,1,2054.1,1,336,completed planned treatment,12,0,3,0.997,N,N,N,
03859427,S0384,ARM1,67.64,male,white,not_hispanic_or_latino,1,2054.8,1,55,"withdrawal (subject, loss to follow-up or physician decision)",2,0,4,0.982,Y,Y,N,
03859427,S0385,ARM1,61.61,male,asian,not_hispanic_or_latino,1,2056.3,1,253,disease progression,10,0,4,1.0,Y,Y,N,
03859427,S0386,ARM1,70.04,female,unknown_or_not_reported,hispanic_or_latino,1,2057.4,1,336,completed planned treatment,12,0,5,1.0,N,N,N,
03859427,S0387,ARM2,46.37,female,white,not_hispanic_or_latino,1,2058.3,1,336,completed planned treatment,12,0,2,0.997,Y,Y,N,
03859427,S0388,ARM1,68.45,male,white,not_hispanic_or_latino,1,2063.4,1,80,"withdrawal (subject, loss to follow-up or physician decision)",3,0,0,1.0,N,N,N,
03859427,S0389,ARM2,55.61,male,black_or_african_american,not_hispanic_or_latino,1,2065.0,1,336,completed planned treatment,12,0,3,0.992,Y,Y,N,
03859427,S0390,ARM2,54.54,male,white,not_hispanic_or_latino,1,2067.4,1,309,disease progression,12,0,0,1.0,Y,Y,N,
03859427,S0391,ARM2,81.64,female,white,not_hispanic_or_latino,1,2082.8,1,309,disease progression,12,0,0,1.0,N,N,N,
03859427,S0392,ARM1,63.61,female,white,not_hispanic_or_latino,1,2084.8,1,336,completed planned treatment,12,0,12,0.991,Y,Y,N,
03859427,S0393,ARM1,58.64,female,black_or_african_american,not_hispanic_or_latino,1,2096.4,1,336,completed planned treatment,12,0,2,1.0,N,N,N,
03859427,S0394,ARM1,64.6,male,white,not_hispanic_or_latino,1,2105.4,1,197,disease progression,8,0,8,0.995,Y,Y,N,
03859427,S0395,ARM1,64.3,male,white,not_hispanic_or_latino,1,2120.9,1,291,"withdrawal (subject, loss to follow-up or physician decision)",11,0,4,0.997,Y,Y,N,
03859427,S0396,ARM2,63.22,male,white,not_hispanic_or_latino,1,2122.5,1,141,disease progression,6,0,3,0.994,Y,Y,N,
03859427,S0397,ARM2,55.59,female,white,not_hispanic_or_latino,1,2131.9,1,336,completed planned treatment,12,0,2,1.0,Y,Y,N,
03859427,S0398,ARM1,64.54,male,unknown_or_not_reported,hispanic_or_latino,1,2156.4,1,113,disease progression,5,0,4,1.0,Y,Y,N,
03859427,S0399,ARM2,61.72,female,white,not_hispanic_or_latino,1,2157.2,1,85,disease progression,4,0,2,1.0,N,N,N,
03859427,S0400,ARM1,39.66,male,black_or_african_american,not_hispanic_or_latino,1,2164.9,1,336,completed planned treatment,12,0,4,0.997,N,N,N,
03859427,S0401,ARM1,50.34,female,white,not_hispanic_or_latino,1,2169.0,1,253,disease progression,10,0,2,1.0,N,N,N,
03859427,S0402,ARM2,54.81,male,white,not_hispanic_or_latino,1,2176.1,1,71,adverse event (registry discontinuation rate),3,0,1,1.0,N,N,N,
03859427,S0403,ARM2,71.91,male,white,not_hispanic_or_latino,1,2178.9,1,107,"withdrawal (subject, loss to follow-up or physician decision)",4,0,2,1.0,Y,Y,N,
03859427,S0404,ARM2,57.58,male,white,not_hispanic_or_latino,1,2179.6,1,336,completed planned treatment,12,0,2,1.0,Y,Y,N,
03859427,S0405,ARM1,47.41,male,asian,not_hispanic_or_latino,1,2184.1,1,12,death,1,0,2,0.938,Y,Y,Y,12
03859427,S0406,ARM1,54.1,female,white,not_hispanic_or_latino,1,2190.2,1,336,completed planned treatment,12,0,4,0.997,Y,Y,N,
03859427,S0407,ARM2,45.57,male,white,not_hispanic_or_latino,1,2191.1,1,336,completed planned treatment,12,0,1,1.0,Y,Y,N,
03859427,S0408,ARM1,68.76,male,white,not_hispanic_or_latino,1,2200.0,1,309,disease progression,12,0,2,0.997,N,N,N,
03859427,S0409,ARM2,62.78,male,white,not_hispanic_or_latino,1,2201.5,1,85,disease progression,4,0,2,0.99,Y,Y,N,
03859427,S0410,ARM1,62.54,female,asian,not_hispanic_or_latino,1,2205.7,1,336,completed planned treatment,12,0,6,1.0,Y,Y,N,
03859427,S0411,ARM1,59.71,male,white,not_hispanic_or_latino,1,2205.8,1,57,disease progression,3,0,4,0.983,Y,Y,N,
03859427,S0412,ARM1,59.32,female,black_or_african_american,not_hispanic_or_latino,1,2208.1,1,336,completed planned treatment,12,0,7,0.997,Y,Y,N,
03859427,S0413,ARM2,52.11,male,asian,not_hispanic_or_latino,1,2208.5,1,336,completed planned treatment,12,0,1,1.0,Y,Y,N,
03859427,S0414,ARM2,64.76,female,white,not_hispanic_or_latino,1,2210.3,1,336,completed planned treatment,12,0,0,1.0,N,N,N,
03859427,S0415,ARM2,60.43,male,white,not_hispanic_or_latino,1,2214.9,1,336,completed planned treatment,12,0,1,0.997,N,N,N,
03859427,S0416,ARM2,67.88,male,white,not_hispanic_or_latino,1,2217.7,1,74,death,3,0,3,1.0,N,N,Y,74
03859427,S0417,ARM1,57.52,female,white,not_hispanic_or_latino,1,2218.6,1,336,completed planned treatment,12,0,2,1.0,Y,Y,N,
03859427,S0418,ARM2,70.76,female,white,not_hispanic_or_latino,1,2225.7,1,85,disease progression,4,0,0,1.0,N,N,N,
03859427,S0419,ARM1,65.11,male,white,not_hispanic_or_latino,1,2226.8,1,29,disease progression,2,0,0,1.0,N,N,N,
03859427,S0420,ARM1,77.19,male,white,not_hispanic_or_latino,1,2227.3,1,169,disease progression,7,0,0,1.0,N,N,N,
03859427,S0421,ARM1,49.79,female,white,not_hispanic_or_latino,1,2241.2,1,86,adverse event (registry discontinuation rate),4,0,0,1.0,N,N,N,
03859427,S0422,ARM1,53.66,male,white,hispanic_or_latino,1,2243.6,1,336,completed planned treatment,12,0,8,1.0,Y,Y,N,
03859427,S0423,ARM2,38.52,male,black_or_african_american,not_hispanic_or_latino,1,2259.5,1,336,completed planned treatment,12,0,3,0.995,Y,Y,Y,681
03859427,S0424,ARM2,97.44,male,white,not_hispanic_or_latino,1,2263.0,1,336,completed planned treatment,12,0,5,1.0,N,N,N,
03859427,S0425,ARM1,56.3,male,white,not_hispanic_or_latino,1,2275.0,1,336,completed planned treatment,12,0,8,0.997,Y,Y,N,
03859427,S0426,ARM1,55.54,male,white,not_hispanic_or_latino,1,2285.1,1,336,completed planned treatment,12,0,4,1.0,Y,Y,N,
03859427,S0427,ARM1,81.11,female,white,not_hispanic_or_latino,1,2298.7,1,336,completed planned treatment,12,0,0,1.0,N,N,N,
03859427,S0428,ARM2,52.41,male,more_than_one_race,not_hispanic_or_latino,1,2310.8,1,85,disease progression,4,0,2,0.99,N,N,N,
03859427,S0429,ARM1,76.47,male,unknown_or_not_reported,not_hispanic_or_latino,1,2312.8,1,336,completed planned treatment,12,0,3,0.994,Y,Y,N,
03859427,S0430,ARM2,75.62,female,white,not_hispanic_or_latino,1,2319.2,1,36,adverse event (registry discontinuation rate),2,0,1,1.0,N,N,N,
03859427,S0431,ARM2,42.36,female,white,not_hispanic_or_latino,1,2320.2,1,336,completed planned treatment,12,0,5,0.997,Y,Y,Y,497
03859427,S0432,ARM2,61.75,male,white,not_hispanic_or_latino,1,2320.9,1,281,disease progression,11,0,1,1.0,N,N,N,
03859427,S0433,ARM2,64.38,male,white,not_hispanic_or_latino,1,2327.8,1,141,disease progression,6,0,1,0.994,Y,Y,N,
03859427,S0434,ARM1,69.63,female,white,not_hispanic_or_latino,1,2335.9,1,336,completed planned treatment,12,0,8,0.997,Y,Y,N,
03859427,S0435,ARM1,61.76,male,white,not_hispanic_or_latino,1,2339.4,1,336,completed planned treatment,12,0,7,0.997,Y,Y,N,
03859427,S0436,ARM2,56.75,female,white,not_hispanic_or_latino,1,2346.5,1,336,completed planned treatment,12,0,2,1.0,Y,Y,N,
03859427,S0437,ARM2,71.68,female,white,not_hispanic_or_latino,1,2351.2,1,336,completed planned treatment,12,0,2,1.0,N,N,N,
03859427,S0438,ARM2,61.56,male,black_or_african_american,not_hispanic_or_latino,1,2362.4,1,251,"withdrawal (subject, loss to follow-up or physician decision)",9,0,1,1.0,N,N,N,
03859427,S0439,ARM2,74.14,male,black_or_african_american,not_hispanic_or_latino,1,2373.7,1,336,completed planned treatment,12,0,1,0.997,N,N,N,
03859427,S0440,ARM1,59.83,female,asian,not_hispanic_or_latino,1,2374.7,1,336,completed planned treatment,12,0,2,1.0,N,N,N,
03859427,S0441,ARM1,52.69,female,white,not_hispanic_or_latino,1,2382.3,1,336,completed planned treatment,12,0,4,0.997,N,N,N,
03859427,S0442,ARM2,63.69,female,white,not_hispanic_or_latino,1,2387.4,1,336,completed planned treatment,12,0,1,0.997,Y,Y,N,
03859427,S0443,ARM2,51.8,female,white,not_hispanic_or_latino,1,2388.8,1,336,completed planned treatment,12,0,1,1.0,N,N,N,
03859427,S0444,ARM1,65.11,female,black_or_african_american,not_hispanic_or_latino,1,2389.7,1,336,completed planned treatment,12,0,1,1.0,Y,Y,Y,433
03859427,S0445,ARM1,64.08,female,white,not_hispanic_or_latino,1,2390.9,1,197,disease progression,8,0,2,1.0,N,N,N,
03859427,S0446,ARM2,76.27,male,white,not_hispanic_or_latino,1,2392.1,1,336,completed planned treatment,12,0,1,1.0,N,N,N,
03859427,S0447,ARM1,69.37,male,white,not_hispanic_or_latino,1,2394.1,1,336,completed planned treatment,12,0,2,1.0,N,N,N,
03859427,S0448,ARM2,67.64,female,black_or_african_american,not_hispanic_or_latino,1,2406.3,1,336,completed planned treatment,12,0,1,1.0,N,N,N,
03859427,S0449,ARM1,74.9,female,unknown_or_not_reported,hispanic_or_latino,1,2406.4,1,336,completed planned treatment,12,0,1,0.997,N,N,N,
03859427,S0450,ARM1,57.37,female,white,hispanic_or_latino,1,2409.8,1,336,completed planned treatment,12,0,3,0.997,N,N,N,
03859427,S0451,ARM1,67.81,female,asian,not_hispanic_or_latino,1,2411.0,1,336,completed planned treatment,12,0,1,1.0,N,N,N,
03859427,S0452,ARM1,66.47,male,white,not_hispanic_or_latino,1,2411.3,1,281,disease progression,11,0,2,1.0,N,N,Y,338
03859427,S0453,ARM1,60.52,male,white,not_hispanic_or_latino,1,2431.0,1,224,adverse event (registry discontinuation rate),8,0,0,1.0,N,N,N,
03859427,S0454,ARM1,72.85,female,white,not_hispanic_or_latino,1,2433.0,1,336,completed planned treatment,12,0,2,1.0,N,N,N,
03859427,S0455,ARM1,74.61,male,white,not_hispanic_or_latino,1,2436.3,1,336,completed planned treatment,12,0,6,0.994,Y,Y,N,
03859427,S0456,ARM2,57.68,male,white,not_hispanic_or_latino,1,2438.0,1,29,disease progression,2,0,0,1.0,N,N,N,
03859427,S0457,ARM1,41.74,male,white,not_hispanic_or_latino,1,2439.1,1,113,disease progression,5,0,5,1.0,Y,Y,N,
03859427,S0458,ARM2,54.19,male,white,not_hispanic_or_latino,1,2443.1,1,336,completed planned treatment,12,0,0,1.0,Y,Y,N,
03859427,S0459,ARM2,67.81,female,white,not_hispanic_or_latino,1,2443.3,1,336,completed planned treatment,12,0,2,1.0,N,N,N,
03859427,S0460,ARM1,62.25,male,white,not_hispanic_or_latino,1,2452.2,1,336,completed planned treatment,12,0,3,1.0,Y,Y,N,
