USUBJID,AESEQ,AETERM,AESER,AETOXGR,AESTDY,AEENDY,AEACN,AERULE
S0001,1,weight_loss,N,2,46,47,NOT APPLICABLE,
S0001,2,neutropenia,N,1,82,85,NOT APPLICABLE,
S0001,3,acute renal failure adverse events,N,2,98,99,NOT APPLICABLE,
S0001,4,pain_in_limb,N,2,101,102,NOT APPLICABLE,
S0001,5,anemia,N,2,104,105,NOT APPLICABLE,
S0001,6,sensory_neuropathy,N,2,190,197,hold,DM030
S0001,7,acute renal failure adverse events,N,1,204,205,NOT APPLICABLE,
S0001,8,hypokalemia,N,1,212,213,NOT APPLICABLE,
S0001,9,hypocalcemia,N,1,221,225,NOT APPLICABLE,
S0001,10,hypertension adverse events,N,1,236,237,hold,DM034
S0001,11,decreased_platelet_count,N,2,238,239,hold,DM011
S0001,12,peripheral_edema,N,1,254,255,NOT APPLICABLE,
S0001,13,hypertension adverse events,N,1,284,285,hold,DM034
S0001,14,non_cardiac_chest_pain,N,2,287,288,NOT APPLICABLE,
S0001,15,hypertension,N,2,328,329,hold,DM034
S0001,16,diarrhea,N,1,362,365,NOT APPLICABLE,
S0002,1,thrombocytopenia,Y,3,32,34,hold,DM011
S0002,2,neutropenia,N,1,91,92,NOT APPLICABLE,
S0002,3,sleeplessness,N,2,113,114,NOT APPLICABLE,
S0002,4,hypocalcemia,N,1,118,119,NOT APPLICABLE,
S0002,5,neuropathic_pain,N,1,120,121,NOT APPLICABLE,
S0002,6,spasm,N,1,149,150,NOT APPLICABLE,
S0002,7,blurred_vision,N,1,184,185,NOT APPLICABLE,
S0002,8,fatigue,N,2,210,211,NOT APPLICABLE,
S0002,9,hypertension,N,2,328,329,hold,DM034
S0002,10,weight_loss,N,1,355,365,NOT APPLICABLE,
S0002,11,diarrhea,N,1,362,365,NOT APPLICABLE,
S0003,1,pain_in_limb,N,2,5,6,NOT APPLICABLE,
S0003,2,spasm,N,1,8,9,NOT APPLICABLE,
S0003,3,dyspepsia,N,1,27,29,NOT APPLICABLE,
S0003,4,nausea,N,1,74,75,NOT APPLICABLE,
S0003,5,decreased_platelet_count,N,2,85,86,hold,DM011
S0003,6,sleeplessness,N,1,101,102,NOT APPLICABLE,
S0003,7,thrombosis/thrombus/embolism,N,1,104,105,NOT APPLICABLE,
S0003,8,influenza,N,2,115,116,NOT APPLICABLE,
S0003,9,hypertension,N,2,129,130,hold,DM034
S0003,10,vomiting,N,2,134,141,NOT APPLICABLE,
S0003,11,neuropathy-sensory,N,1,135,141,NOT APPLICABLE,
S0003,12,neuralgia,N,1,144,145,NOT APPLICABLE,
S0003,13,rash/desquamation,N,2,153,154,NOT APPLICABLE,
S0003,14,neutrophil_count_decreased,N,1,162,169,NOT APPLICABLE,
S0003,15,sensory_neuropathy,N,2,210,211,hold,DM030
S0003,16,weight_loss,N,2,233,234,NOT APPLICABLE,
S0003,17,peripheral_nervous_system_diseases,N,1,234,235,NOT APPLICABLE,
S0003,18,anemia,N,1,237,238,NOT APPLICABLE,
S0003,19,hypercholesterolemia,N,2,249,253,NOT APPLICABLE,
S0003,20,hypertension_variable,N,1,257,258,hold,DM034
S0003,21,nasopharyngitis,N,1,264,265,NOT APPLICABLE,
S0003,22,bone_pain,N,1,307,309,NOT APPLICABLE,
S0003,23,neuropathic_pain,N,2,312,313,NOT APPLICABLE,
S0003,24,lower_respiratory_tract_infection,Y,3,318,320,hold,DM028
S0003,25,thrombocytopenia,N,2,351,365,NOT APPLICABLE,
S0004,1,acute renal failure adverse events,N,1,8,9,NOT APPLICABLE,
S0004,2,anemia,N,2,24,29,NOT APPLICABLE,
S0004,3,myalgia,N,2,30,31,NOT APPLICABLE,
S0004,4,hypokalemia,N,2,75,76,NOT APPLICABLE,
S0004,5,hypoalbuminemia,N,1,96,97,NOT APPLICABLE,
S0004,6,nausea,N,2,102,103,NOT APPLICABLE,
S0004,7,hypocalcemia,N,2,113,114,NOT APPLICABLE,
S0004,8,sleeplessness,N,1,114,115,NOT APPLICABLE,
S0004,9,hyperglycemia,N,2,147,148,NOT APPLICABLE,
S0004,10,bone_pain,N,1,153,154,NOT APPLICABLE,
S0004,11,neuropathy-sensory,N,1,166,169,NOT APPLICABLE,
S0004,12,hypertension,N,1,206,207,hold,DM034
S0004,13,blurred_vision,N,1,214,215,NOT APPLICABLE,
S0004,14,neutropenia,N,2,232,233,NOT APPLICABLE,
S0004,15,vomiting,N,1,280,281,NOT APPLICABLE,
S0005,1,constipation,N,2,15,16,NOT APPLICABLE,
S0005,2,hypertriglyceridemia,N,1,38,39,NOT APPLICABLE,
S0005,3,influenza,N,2,39,40,NOT APPLICABLE,
S0005,4,respiratory_tract_infections,N,2,47,48,NOT APPLICABLE,
S0005,5,sensory_neuropathy,N,2,51,57,hold,DM030
S0005,6,hypercholesterolemia,N,2,53,57,NOT APPLICABLE,
S0005,7,sleeplessness,N,1,55,57,NOT APPLICABLE,
S0005,8,dizziness,N,1,56,57,NOT APPLICABLE,
S0005,9,peripheral_nervous_system_diseases,N,1,67,68,NOT APPLICABLE,
S0005,10,bone_pain,N,2,82,85,NOT APPLICABLE,
S0005,11,hypoalbuminemia,N,1,93,94,NOT APPLICABLE,
S0005,12,lower_respiratory_tract_infection,Y,3,99,101,hold,DM028
S0005,13,neuralgia,N,1,110,113,NOT APPLICABLE,
S0005,14,cardiac_failure_secondary_to_chest_deformity,Y,3,119,121,NOT APPLICABLE,
S0005,15,non_cardiac_chest_pain,N,2,129,130,NOT APPLICABLE,
S0005,16,dyspepsia,N,2,143,144,NOT APPLICABLE,
S0005,17,deep_vein_thrombosis,Y,3,143,145,NOT APPLICABLE,
S0005,18,diarrhea,N,1,166,169,NOT APPLICABLE,
S0005,19,anemia,N,2,169,170,NOT APPLICABLE,
S0005,20,peripheral_edema,N,2,177,178,NOT APPLICABLE,
S0005,21,anorexia,N,1,177,178,NOT APPLICABLE,
S0005,22,neuropathy-sensory,N,1,178,179,NOT APPLICABLE,
S0005,23,edema:_limb,N,2,216,217,NOT APPLICABLE,
S0005,24,rash/desquamation,N,2,219,225,NOT APPLICABLE,
S0005,25,spasm,N,2,229,230,NOT APPLICABLE,
S0005,26,back_pain,N,2,231,232,NOT APPLICABLE,
S0005,27,hypertension_variable,N,1,233,234,hold,DM034
S0005,28,neutrophil_count_decreased,N,2,236,237,NOT APPLICABLE,
S0005,29,coughing,N,1,246,253,NOT APPLICABLE,
S0005,30,leukopenia,N,1,312,313,NOT APPLICABLE,
S0005,31,dyspnea,N,2,312,313,hold,DM032
S0005,32,nasopharyngitis,N,2,321,322,NOT APPLICABLE,
S0005,33,cataract,N,2,322,323,NOT APPLICABLE,
S0005,34,decrease_in_appetite,N,1,327,328,NOT APPLICABLE,
S0005,35,hypertension,N,1,328,329,hold,DM034
S0005,36,thrombocytopenia,N,2,337,365,NOT APPLICABLE,
S0005,37,fever,N,1,344,365,NOT APPLICABLE,
S0005,38,pain_in_limb,N,1,351,365,NOT APPLICABLE,
S0005,39,pneumonia,N,1,353,365,NOT APPLICABLE,
S0006,1,nausea,N,1,3,4,NOT APPLICABLE,
S0006,2,hypertension,N,2,18,19,hold,DM034
S0006,3,hypertriglyceridemia,N,1,19,20,NOT APPLICABLE,
S0006,4,lower_respiratory_tract_infection,Y,3,40,42,hold,DM028
S0006,5,rash/desquamation,N,1,50,57,NOT APPLICABLE,
S0006,6,neutrophil_count_decreased,N,2,64,65,NOT APPLICABLE,
S0006,7,hypercholesterolemia,N,1,74,75,NOT APPLICABLE,
S0006,8,hypertension,N,2,109,113,hold,DM034
S0006,9,neuralgia,N,2,120,121,NOT APPLICABLE,
S0006,10,thrombocytopenia,N,1,121,122,hold,DM011
S0006,11,nasopharyngitis,N,2,128,129,NOT APPLICABLE,
S0006,12,hypertension_variable,N,1,183,184,hold,DM034
S0006,13,neuropathy-sensory,N,1,222,225,NOT APPLICABLE,
S0006,14,decrease_in_appetite,N,1,240,241,NOT APPLICABLE,
S0006,15,peripheral_nervous_system_diseases,N,1,250,253,NOT APPLICABLE,
S0006,16,sensory_neuropathy,N,2,291,292,hold,DM030
S0006,17,bone_pain,N,1,321,322,NOT APPLICABLE,
S0006,18,dizziness,N,1,330,337,NOT APPLICABLE,
S0006,19,constipation,N,1,334,337,NOT APPLICABLE,
S0006,20,dry_skin,N,2,361,365,NOT APPLICABLE,
S0006,21,hypoalbuminemia,N,2,363,365,NOT APPLICABLE,
S0007,1,neuropathy-sensory,N,2,4,5,hold,DM030
S0007,2,bone_pain,N,1,6,7,NOT APPLICABLE,
S0007,3,leukopenia,N,2,27,29,NOT APPLICABLE,
S0007,4,rash/desquamation,N,2,27,29,NOT APPLICABLE,
S0007,5,hypertension,N,2,43,44,hold,DM034
S0007,6,neutrophil_count_decreased,N,2,46,47,NOT APPLICABLE,
S0007,7,respiratory_tract_infections,Y,3,83,86,hold,DM028
S0007,8,non_cardiac_chest_pain,N,1,100,101,NOT APPLICABLE,
S0007,9,hypertension_variable,N,2,115,116,hold,DM034
S0007,10,constipation,N,2,122,123,NOT APPLICABLE,
S0007,11,vomiting,N,2,133,134,NOT APPLICABLE,
S0007,12,hemoglobin_normal_12_16_gm,N,1,140,141,NOT APPLICABLE,
S0007,13,neutropenia,N,1,142,143,NOT APPLICABLE,
S0007,14,influenza,N,1,143,144,NOT APPLICABLE,
S0007,15,dyspepsia,N,1,151,152,NOT APPLICABLE,
S0007,16,hypertriglyceridemia,N,2,184,185,NOT APPLICABLE,
S0007,17,headache,N,2,186,187,NOT APPLICABLE,
S0007,18,thrombocytopenia,N,1,195,197,hold,DM011
S0007,19,pain_in_limb,N,1,215,216,NOT APPLICABLE,
S0007,20,neuralgia,N,1,216,217,NOT APPLICABLE,
S0007,21,decrease_in_appetite,N,1,223,225,NOT APPLICABLE,
S0007,22,pneumonia,N,1,228,229,NOT APPLICABLE,
S0007,23,upper_respiratory_infections,N,2,235,236,NOT APPLICABLE,
S0007,24,peripheral_nervous_system_diseases,N,1,235,236,NOT APPLICABLE,
S0007,25,hypertension,N,2,260,261,hold,DM034
S0007,26,dizziness,N,1,263,264,NOT APPLICABLE,
S0007,27,thrombosis/thrombus/embolism,N,1,289,290,NOT APPLICABLE,
S0007,28,gastroenteritis,N,1,294,295,NOT APPLICABLE,
S0007,29,falls,N,2,298,299,NOT APPLICABLE,
S0007,30,hypercholesterolemia,N,1,323,324,NOT APPLICABLE,
S0007,31,lower_respiratory_tract_infection,Y,3,328,330,hold,DM028
S0007,32,platelets,N,2,362,365,NOT APPLICABLE,
S0008,1,thrombosis/thrombus/embolism,N,2,34,35,NOT APPLICABLE,
S0008,2,hypertension_variable,N,1,44,45,hold,DM034
S0008,3,respiratory_tract_infections,Y,3,82,86,hold,DM028
S0008,4,hypoalbuminemia,N,1,83,85,NOT APPLICABLE,
S0008,5,thrombocytopenia,N,1,84,85,hold,DM011
S0008,6,neuropathy-sensory,N,1,97,98,NOT APPLICABLE,
S0008,7,neutrophil_count_decreased,N,2,101,102,NOT APPLICABLE,
S0008,8,spasm,N,2,148,149,NOT APPLICABLE,
S0008,9,hypercholesterolemia,N,1,155,156,NOT APPLICABLE,
S0008,10,neutropenia,N,2,159,160,NOT APPLICABLE,
S0008,11,dizziness,N,2,168,169,NOT APPLICABLE,
S0008,12,neuralgia,N,1,175,176,NOT APPLICABLE,
S0008,13,upper_respiratory_infections,N,2,183,184,NOT APPLICABLE,
S0008,14,nausea,N,2,199,200,NOT APPLICABLE,
S0008,15,vomiting,N,1,226,227,NOT APPLICABLE,
S0008,16,lower_respiratory_tract_infection,Y,3,229,231,hold,DM028
S0008,17,dyspepsia,N,1,251,253,NOT APPLICABLE,
S0008,18,anemia,N,2,257,258,NOT APPLICABLE,
S0008,19,leukopenia,N,1,259,260,NOT APPLICABLE,
S0008,20,sleeplessness,N,2,262,263,NOT APPLICABLE,
S0008,21,bone_pain,N,2,269,270,NOT APPLICABLE,
S0008,22,"potassium,_serum-low_(hypokalemia)",N,1,294,295,NOT APPLICABLE,
S0008,23,diarrhea,N,1,304,309,NOT APPLICABLE,
S0008,24,hypertriglyceridemia,N,1,310,311,NOT APPLICABLE,
S0008,25,abdominal_pain,N,2,310,311,NOT APPLICABLE,
S0008,26,falls,N,2,319,320,NOT APPLICABLE,
S0008,27,rash/desquamation,N,1,326,327,NOT APPLICABLE,
S0008,28,peripheral_nervous_system_diseases,N,2,338,365,NOT APPLICABLE,
S0009,1,spasm,N,2,34,35,NOT APPLICABLE,
S0009,2,blurred_vision,N,2,56,57,NOT APPLICABLE,
S0009,3,nausea,N,1,76,77,NOT APPLICABLE,
S0009,4,diarrhea,N,2,90,91,NOT APPLICABLE,
S0009,5,peripheral_edema,N,1,101,102,NOT APPLICABLE,
S0009,6,sleeplessness,N,2,189,190,NOT APPLICABLE,
S0009,7,fatigue,N,1,198,199,NOT APPLICABLE,
S0009,8,leukopenia,N,1,243,244,NOT APPLICABLE,
S0009,9,hypocalcemia,N,1,261,262,NOT APPLICABLE,
S0009,10,vomiting,N,1,302,309,NOT APPLICABLE,
S0009,11,pain,N,1,307,309,NOT APPLICABLE,
S0010,1,anemia,N,2,21,22,NOT APPLICABLE,
S0010,2,pain,N,1,59,60,NOT APPLICABLE,
S0010,3,nausea,N,2,99,100,NOT APPLICABLE,
S0010,4,neutropenia,N,1,140,141,NOT APPLICABLE,
S0010,5,neutrophil_count_decreased,N,1,156,157,NOT APPLICABLE,
S0010,6,thrombocytopenia,Y,3,167,170,hold,DM011
S0010,7,respiratory_tract_infections,N,2,194,197,NOT APPLICABLE,
S0010,8,hyperglycemia,N,2,217,218,NOT APPLICABLE,
S0010,9,hypocalcemia,N,2,225,226,NOT APPLICABLE,
S0010,10,spasm,N,2,247,253,NOT APPLICABLE,
S0010,11,pain_in_limb,N,1,271,272,NOT APPLICABLE,
S0010,12,hypertension adverse events,N,2,310,311,hold,DM034
S0010,13,hypoalbuminemia,N,1,330,337,NOT APPLICABLE,
S0011,1,pneumonia,Y,3,33,35,NOT APPLICABLE,
S0011,2,anemia,N,1,100,101,NOT APPLICABLE,
S0011,3,weight_loss,N,2,184,185,NOT APPLICABLE,
S0011,4,nausea,N,2,190,197,NOT APPLICABLE,
S0011,5,hyperglycemia,N,2,196,197,NOT APPLICABLE,
S0011,6,hypocalcemia,N,1,281,282,NOT APPLICABLE,
S0011,7,hypertension_variable,N,2,289,290,hold,DM034
S0011,8,dizziness,N,1,302,309,NOT APPLICABLE,
S0011,9,diarrhea,N,1,303,309,NOT APPLICABLE,
S0011,10,pain_in_limb,N,1,352,365,NOT APPLICABLE,
S0011,11,acute renal failure,N,2,363,365,NOT APPLICABLE,
S0012,1,diarrhea,N,1,7,8,NOT APPLICABLE,
S0012,2,back_pain,N,2,23,29,NOT APPLICABLE,
S0012,3,thrombocytopenia,N,2,101,102,hold,DM011
S0012,4,hypercholesterolemia,N,1,111,113,NOT APPLICABLE,
S0012,5,dyspepsia,N,2,146,147,NOT APPLICABLE,
S0012,6,rash/desquamation,N,2,147,148,NOT APPLICABLE,
S0012,7,neuralgia,N,1,192,197,NOT APPLICABLE,
S0012,8,decrease_in_appetite,N,1,293,294,NOT APPLICABLE,
S0012,9,hypertension_variable,N,2,340,365,NOT APPLICABLE,
S0012,10,neutrophil_count_decreased,N,2,355,365,NOT APPLICABLE,
S0013,1,neuralgia,N,2,40,41,NOT APPLICABLE,
S0013,2,hypertension_variable,N,1,50,57,hold,DM034
S0013,3,thrombocytopenia,N,1,57,58,hold,DM011
S0013,4,neutrophil_count_decreased,N,1,73,74,NOT APPLICABLE,
S0013,5,rash/desquamation,N,2,75,76,NOT APPLICABLE,
S0013,6,back_pain,N,1,76,77,NOT APPLICABLE,
S0013,7,respiratory_tract_infections,Y,3,109,114,hold,DM028
S0013,8,cataract,N,1,144,145,NOT APPLICABLE,
S0013,9,spasm,N,2,182,183,NOT APPLICABLE,
S0013,10,weight_loss,N,1,187,188,NOT APPLICABLE,
S0013,11,hypercholesterolemia,N,2,192,197,NOT APPLICABLE,
S0013,12,dyspepsia,N,2,219,225,NOT APPLICABLE,
S0013,13,decrease_in_appetite,N,1,223,225,NOT APPLICABLE,
S0013,14,sensory_neuropathy,N,2,239,240,hold,DM030
S0013,15,nausea,N,1,275,281,NOT APPLICABLE,
S0013,16,leukopenia,N,1,283,284,NOT APPLICABLE,
S0013,17,anemia,N,1,284,285,NOT APPLICABLE,
S0013,18,peripheral_nervous_system_diseases,N,1,329,330,NOT APPLICABLE,
S0013,19,nasopharyngitis,N,1,350,365,NOT APPLICABLE,
S0014,1,rash/desquamation,N,2,4,5,NOT APPLICABLE,
S0014,2,thrombocytopenia,N,2,5,6,hold,DM011
S0015,1,sensory_neuropathy,N,1,7,8,NOT APPLICABLE,
S0015,2,hypertension_variable,N,2,11,12,hold,DM034
S0015,3,back_pain,N,2,16,17,NOT APPLICABLE,
S0015,4,neuropathy-sensory,N,1,32,33,NOT APPLICABLE,
S0015,5,bone_pain,N,2,36,37,NOT APPLICABLE,
S0015,6,rash/desquamation,N,2,37,38,NOT APPLICABLE,
S0015,7,peripheral_nervous_system_diseases,N,2,44,45,NOT APPLICABLE,
S0015,8,nausea,N,1,46,47,NOT APPLICABLE,
S0015,9,neutrophil_count_decreased,N,1,57,58,NOT APPLICABLE,
S0015,10,anemia,N,2,58,59,NOT APPLICABLE,
S0015,11,neuralgia,N,1,60,61,NOT APPLICABLE,
S0015,12,hypercholesterolemia,N,2,62,63,NOT APPLICABLE,
S0015,13,thrombocytopenia,N,2,73,74,NOT APPLICABLE,
S0016,1,nasopharyngitis,N,2,16,17,NOT APPLICABLE,
S0016,2,influenza,N,1,37,38,NOT APPLICABLE,
S0016,3,nausea,N,1,38,39,NOT APPLICABLE,
S0016,4,cataract,N,1,40,41,NOT APPLICABLE,
S0016,5,urinary_tract_infection,Y,3,50,58,hold,DM028
S0016,6,hypocalcemia,N,1,61,62,NOT APPLICABLE,
S0016,7,neuropathy-sensory,N,1,65,66,NOT APPLICABLE,
S0016,8,neutrophil_count_decreased,N,2,75,76,NOT APPLICABLE,
S0016,9,anemia,N,2,76,77,NOT APPLICABLE,
S0016,10,asthenia,N,1,82,85,NOT APPLICABLE,
S0016,11,rash/desquamation,N,2,89,90,NOT APPLICABLE,
S0016,12,bone_pain,N,1,102,103,NOT APPLICABLE,
S0016,13,lower_respiratory_tract_infection,Y,3,114,116,hold,DM028
S0016,14,thrombosis/thrombus/embolism,N,1,115,116,NOT APPLICABLE,
S0016,15,thrombocytopenia,N,2,133,134,hold,DM011
S0016,16,sensory_neuropathy,N,2,145,146,hold,DM030
S0016,17,peripheral_nervous_system_diseases,N,2,169,170,NOT APPLICABLE,
S0016,18,diarrhea,N,2,183,184,NOT APPLICABLE,
S0016,19,hypercholesterolemia,N,2,208,209,NOT APPLICABLE,
S0016,20,neuralgia,N,1,240,241,NOT APPLICABLE,
S0016,21,dry_skin,N,2,273,274,NOT APPLICABLE,
S0016,22,dyspnea,N,2,284,285,hold,DM032
S0016,23,hypertension_variable,N,1,292,293,hold,DM034
S0016,24,hypertriglyceridemia,N,1,306,309,NOT APPLICABLE,
S0016,25,coughing,N,1,321,322,NOT APPLICABLE,
S0016,26,dyspepsia,N,1,325,326,NOT APPLICABLE,
S0016,27,pain_in_limb,N,2,351,365,NOT APPLICABLE,
S0016,28,decrease_in_appetite,N,2,351,365,NOT APPLICABLE,
S0017,1,vomiting,N,1,18,19,NOT APPLICABLE,
S0017,2,neuropathy-sensory,N,2,58,59,hold,DM030
S0017,3,peripheral_edema,N,1,85,86,NOT APPLICABLE,
S0017,4,pain,N,1,123,124,NOT APPLICABLE,
S0017,5,neutropenia,N,1,129,130,NOT APPLICABLE,
S0017,6,blurred_vision,N,2,153,154,NOT APPLICABLE,
S0017,7,neutrophil_count_decreased,N,1,161,162,NOT APPLICABLE,
S0017,8,hypocalcemia,N,1,167,169,NOT APPLICABLE,
S0017,9,anemia,N,2,211,212,NOT APPLICABLE,
S0017,10,pain_in_limb,N,2,314,315,NOT APPLICABLE,
S0017,11,neuropathy-motor,N,2,314,315,hold,DM030
S0017,12,hypertension adverse events,N,1,319,320,hold,DM034
S0017,13,hypertension,N,2,345,365,NOT APPLICABLE,
S0017,14,dizziness,N,1,354,365,NOT APPLICABLE,
S0017,15,neuropathic_pain,N,1,361,365,NOT APPLICABLE,
S0017,16,acute renal failure,N,1,362,365,NOT APPLICABLE,
S0018,1,sleeplessness,N,1,3,4,NOT APPLICABLE,
S0018,2,bone_pain,N,2,42,43,NOT APPLICABLE,
S0018,3,vomiting,N,2,95,96,NOT APPLICABLE,
S0018,4,anemia,N,2,112,113,NOT APPLICABLE,
S0018,5,back_pain,N,1,177,178,NOT APPLICABLE,
S0018,6,neutrophil_count_decreased,N,1,178,179,NOT APPLICABLE,
S0018,7,respiratory_tract_infections,Y,3,185,187,hold,DM028
S0018,8,decrease_in_appetite,N,1,193,197,NOT APPLICABLE,
S0018,9,nasopharyngitis,N,2,226,227,NOT APPLICABLE,
S0018,10,thrombocytopenia,N,1,231,232,hold,DM011
S0018,11,hypercholesterolemia,N,1,249,253,NOT APPLICABLE,
S0018,12,rash/desquamation,N,1,264,265,NOT APPLICABLE,
S0018,13,pain_in_limb,N,2,290,291,NOT APPLICABLE,
S0018,14,diarrhea,N,2,302,309,NOT APPLICABLE,
S0018,15,neuropathy-sensory,N,2,304,309,hold,DM030
S0018,16,sensory_neuropathy,N,2,333,337,hold,DM030
S0018,17,hypertension_variable,N,2,342,365,NOT APPLICABLE,
S0018,18,hypertension,N,2,344,365,NOT APPLICABLE,
S0019,1,rash/desquamation,N,2,42,43,NOT APPLICABLE,
S0019,2,neutrophil_count_decreased,N,1,61,62,NOT APPLICABLE,
S0019,3,respiratory_tract_infections,Y,3,128,130,hold,DM028
S0019,4,hypertension_variable,N,2,178,179,hold,DM034
S0019,5,hypercholesterolemia,N,2,250,253,NOT APPLICABLE,
S0019,6,thrombocytopenia,N,1,260,261,hold,DM011
S0019,7,neuralgia,N,2,353,365,NOT APPLICABLE,
S0020,1,fever,N,1,12,13,NOT APPLICABLE,
S0020,2,hypertension adverse events,N,1,23,29,hold,DM034
S0020,3,hypocalcemia,N,1,49,50,NOT APPLICABLE,
S0020,4,gastroenteritis,N,1,52,57,NOT APPLICABLE,
S0020,5,hypertension adverse events,N,2,70,71,hold,DM034
S0020,6,respiratory_tract_infections,N,1,85,86,NOT APPLICABLE,
S0020,7,blurred_vision,N,2,92,93,NOT APPLICABLE,
S0020,8,neutropenia,N,2,163,169,NOT APPLICABLE,
S0020,9,pain_in_limb,N,1,211,212,NOT APPLICABLE,
S0020,10,weight_loss,N,1,269,270,NOT APPLICABLE,
S0020,11,hyperglycemia,N,2,281,282,NOT APPLICABLE,
S0020,12,neutrophil_count_decreased,N,2,295,296,NOT APPLICABLE,
S0020,13,fatigue,N,2,306,309,NOT APPLICABLE,
S0020,14,nausea,N,1,308,309,NOT APPLICABLE,
S0020,15,dizziness,N,1,310,311,NOT APPLICABLE,
S0020,16,hyponatremia,N,1,361,365,NOT APPLICABLE,
S0021,1,hypocalcemia,N,2,2,3,NOT APPLICABLE,
S0021,2,neutropenia,N,2,60,61,NOT APPLICABLE,
S0021,3,thrombocytopenia,Y,3,66,68,hold,DM011
S0021,4,pain,N,1,75,76,NOT APPLICABLE,
S0021,5,pain_in_limb,N,2,94,95,NOT APPLICABLE,
S0021,6,upper_respiratory_infections,N,1,129,130,NOT APPLICABLE,
S0021,7,dizziness,N,2,184,185,NOT APPLICABLE,
S0021,8,neutrophil_count_decreased,N,2,189,190,NOT APPLICABLE,
S0021,9,peripheral_edema,N,1,192,197,NOT APPLICABLE,
S0021,10,influenza,N,2,218,225,NOT APPLICABLE,
S0021,11,hypertension,N,1,247,253,hold,DM034
S0022,1,upper_respiratory_infections,N,2,6,7,NOT APPLICABLE,
S0022,2,diarrhea,N,1,34,35,NOT APPLICABLE,
S0022,3,thrombocytopenia,Y,3,39,41,hold,DM011
S0022,4,constipation,N,1,65,66,NOT APPLICABLE,
S0022,5,vomiting,N,1,71,72,NOT APPLICABLE,
S0022,6,hyperglycemia,N,1,135,141,NOT APPLICABLE,
S0022,7,hypocalcemia,N,2,160,161,NOT APPLICABLE,
S0022,8,fatigue,N,1,176,177,NOT APPLICABLE,
S0022,9,anemia,N,1,203,204,NOT APPLICABLE,
S0022,10,hypoalbuminemia,N,1,288,289,NOT APPLICABLE,
S0022,11,acute renal failure,N,1,304,309,NOT APPLICABLE,
S0022,12,dizziness,N,2,309,310,NOT APPLICABLE,
S0022,13,weight_loss,N,1,320,321,NOT APPLICABLE,
S0023,1,bone_pain,N,1,51,57,NOT APPLICABLE,
S0023,2,dyspepsia,N,1,58,59,NOT APPLICABLE,
S0023,3,neuropathy-sensory,N,1,73,74,NOT APPLICABLE,
S0023,4,gastroenteritis,N,2,77,78,NOT APPLICABLE,
S0023,5,constipation,N,2,80,85,NOT APPLICABLE,
S0023,6,neuralgia,N,2,128,129,NOT APPLICABLE,
S0023,7,hypertension_variable,N,1,139,141,hold,DM034
S0023,8,hypercholesterolemia,N,1,141,142,NOT APPLICABLE,
S0023,9,pain_in_limb,N,1,155,156,NOT APPLICABLE,
S0023,10,rash/desquamation,N,1,174,175,NOT APPLICABLE,
S0023,11,peripheral_nervous_system_diseases,N,2,192,197,NOT APPLICABLE,
S0023,12,dyspnea,N,2,198,199,hold,DM032
S0023,13,neutrophil_count_decreased,N,2,210,211,NOT APPLICABLE,
S0023,14,cataract,N,1,254,255,NOT APPLICABLE,
S0023,15,decrease_in_appetite,N,1,260,261,NOT APPLICABLE,
S0023,16,back_pain,N,2,285,286,NOT APPLICABLE,
S0023,17,influenza,N,1,295,296,NOT APPLICABLE,
S0023,18,thrombocytopenia,N,2,333,337,hold,DM011
S0023,19,anorexia,N,2,346,365,NOT APPLICABLE,
S0024,1,nausea,N,2,4,5,NOT APPLICABLE,
S0024,2,constipation,N,1,5,6,NOT APPLICABLE,
S0024,3,decreased_platelet_count,N,1,29,30,hold,DM011
S0024,4,neuropathic_pain,N,2,63,64,NOT APPLICABLE,
S0024,5,hypocalcemia,N,1,63,64,NOT APPLICABLE,
S0024,6,neutropenia,N,1,91,92,NOT APPLICABLE,
S0024,7,hypoalbuminemia,N,1,160,161,NOT APPLICABLE,
S0024,8,spasm,N,1,193,197,NOT APPLICABLE,
S0024,9,back_pain,N,2,199,200,NOT APPLICABLE,
S0024,10,influenza,N,1,216,217,NOT APPLICABLE,
S0024,11,hyperglycemia,N,2,227,228,NOT APPLICABLE,
S0024,12,hypertension_variable,N,1,248,253,hold,DM034
S0024,13,neutrophil_count_decreased,N,2,285,286,NOT APPLICABLE,
S0024,14,pain,N,1,294,295,NOT APPLICABLE,
S0024,15,dizziness,N,2,308,309,NOT APPLICABLE,
S0024,16,thrombocytopenia,Y,3,324,326,hold,DM011
S0024,17,fatigue,N,1,333,337,NOT APPLICABLE,
S0025,1,nausea,N,2,6,7,NOT APPLICABLE,
S0025,2,hypertension adverse events,N,2,15,16,hold,DM034
S0025,3,blurred_vision,N,1,20,21,NOT APPLICABLE,
S0025,4,vomiting,N,1,41,42,NOT APPLICABLE,
S0025,5,respiratory_tract_infections,N,1,59,60,NOT APPLICABLE,
S0025,6,fatigue,N,1,69,70,NOT APPLICABLE,
S0025,7,hypocalcemia,N,1,77,78,NOT APPLICABLE,
S0025,8,sleeplessness,N,2,89,90,NOT APPLICABLE,
S0025,9,neuropathy-motor,N,1,91,92,NOT APPLICABLE,
S0025,10,thrombocytopenia,Y,3,95,97,hold,DM011
S0025,11,decreased_platelet_count,N,2,99,100,hold,DM011
S0025,12,anemia,N,2,112,113,NOT APPLICABLE,
S0025,13,decrease_in_appetite,N,1,141,142,NOT APPLICABLE,
S0025,14,hypertension adverse events,N,1,141,142,hold,DM034
S0025,15,neuropathic_pain,N,2,148,149,NOT APPLICABLE,
S0025,16,pain_in_limb,N,2,151,152,NOT APPLICABLE,
S0025,17,peripheral_edema,N,2,160,161,NOT APPLICABLE,
S0026,1,hypoalbuminemia,N,1,2,3,NOT APPLICABLE,
S0026,2,hypertension adverse events,N,1,5,6,hold,DM034
S0026,3,dehydration,N,2,11,12,NOT APPLICABLE,
S0026,4,fatigue,N,2,13,14,NOT APPLICABLE,
S0026,5,neutropenia,N,2,15,16,NOT APPLICABLE,
S0026,6,hypocalcemia,N,1,30,31,NOT APPLICABLE,
S0026,7,pain_in_limb,N,2,35,36,NOT APPLICABLE,
S0026,8,thrombocytopenia,Y,3,37,39,NOT APPLICABLE,
S0026,9,hemoglobin_normal_12_16_gm,N,1,39,40,NOT APPLICABLE,
S0026,10,anemia,N,2,42,43,NOT APPLICABLE,
S0026,11,hypokalemia,N,1,49,50,NOT APPLICABLE,
S0026,12,weight_loss,N,1,51,57,NOT APPLICABLE,
S0026,13,blurred_vision,N,1,52,57,NOT APPLICABLE,
S0026,14,diarrhea,N,1,53,57,NOT APPLICABLE,
S0026,15,anorexia,N,2,55,57,NOT APPLICABLE,
S0026,16,sleeplessness,N,2,56,57,NOT APPLICABLE,
S0026,17,dizziness,N,1,59,60,NOT APPLICABLE,
S0027,1,vomiting,N,2,4,5,NOT APPLICABLE,
S0027,2,nasopharyngitis,N,2,4,5,NOT APPLICABLE,
S0027,3,lower_respiratory_tract_infection,Y,3,5,7,hold,DM028
S0027,4,back_pain,N,1,24,29,NOT APPLICABLE,
S0027,5,neuropathy-sensory,N,1,67,68,NOT APPLICABLE,
S0027,6,peripheral_edema,N,1,84,85,NOT APPLICABLE,
S0027,7,urinary_tract_infection,Y,3,84,86,hold,DM028
S0027,8,hypercholesterolemia,N,1,94,95,NOT APPLICABLE,
S0027,9,bone_pain,N,2,95,96,NOT APPLICABLE,
S0027,10,anemia,N,2,117,118,NOT APPLICABLE,
S0027,11,dry_skin,N,2,117,118,NOT APPLICABLE,
S0027,12,dyspepsia,N,2,151,152,NOT APPLICABLE,
S0027,13,myalgia,N,2,169,170,NOT APPLICABLE,
S0027,14,decrease_in_appetite,N,1,184,185,NOT APPLICABLE,
S0027,15,neuralgia,N,2,201,202,NOT APPLICABLE,
S0027,16,respiratory_tract_infections,Y,3,224,226,hold,DM028
S0027,17,thrombocytopenia,N,2,252,253,hold,DM011
S0027,18,neutrophil_count_decreased,N,1,289,290,NOT APPLICABLE,
S0027,19,hypertension_variable,N,2,295,296,hold,DM034
S0027,20,diarrhea,N,1,308,309,NOT APPLICABLE,
S0027,21,peripheral_nervous_system_diseases,N,2,313,314,NOT APPLICABLE,
S0027,22,hypertension,N,2,316,317,hold,DM034
S0027,23,rash/desquamation,N,1,339,365,NOT APPLICABLE,
S0028,1,hypercholesterolemia,N,1,2,3,NOT APPLICABLE,
S0028,2,thrombocytopenia,N,2,9,10,hold,DM011
S0028,3,"potassium,_serum-low_(hypokalemia)",N,2,18,19,NOT APPLICABLE,
S0028,4,dry_skin,N,2,29,30,NOT APPLICABLE,
S0028,5,decrease_in_appetite,N,1,32,33,NOT APPLICABLE,
S0028,6,neuralgia,N,2,50,57,NOT APPLICABLE,
S0028,7,asthenia,N,2,88,89,NOT APPLICABLE,
S0028,8,respiratory_tract_infections,Y,3,127,129,hold,DM028
S0028,9,blurred_vision,N,2,139,141,NOT APPLICABLE,
S0028,10,upper_respiratory_infections,N,2,140,141,NOT APPLICABLE,
S0028,11,leukopenia,N,1,146,147,NOT APPLICABLE,
S0028,12,anorexia,N,2,151,152,NOT APPLICABLE,
S0028,13,nausea,N,1,160,161,NOT APPLICABLE,
S0028,14,lower_respiratory_tract_infection,Y,3,191,198,hold,DM028
S0028,15,pain_in_limb,N,2,201,202,NOT APPLICABLE,
S0028,16,hypocalcemia,N,1,224,225,NOT APPLICABLE,
S0028,17,influenza,N,1,226,227,NOT APPLICABLE,
S0028,18,sensory_neuropathy,N,1,229,230,NOT APPLICABLE,
S0028,19,hypertension_variable,N,1,236,237,hold,DM034
S0028,20,back_pain,N,2,268,269,NOT APPLICABLE,
S0028,21,anemia,N,2,279,281,NOT APPLICABLE,
S0028,22,headache,N,1,284,285,NOT APPLICABLE,
S0028,23,peripheral_nervous_system_diseases,N,1,284,285,NOT APPLICABLE,
S0028,24,rash/desquamation,N,1,311,312,NOT APPLICABLE,
S0028,25,neutrophil_count_decreased,N,1,318,319,NOT APPLICABLE,
S0028,26,rash_erythematous_macules_or_papules,N,2,341,365,NOT APPLICABLE,
S0028,27,thrombosis/thrombus/embolism,N,1,348,365,NOT APPLICABLE,
S0028,28,sleeplessness,N,2,351,365,NOT APPLICABLE,
S0028,29,dyspepsia,N,2,352,365,NOT APPLICABLE,
S0028,30,neutropenia,N,1,353,365,NOT APPLICABLE,
S0028,31,diarrhea,N,2,359,365,NOT APPLICABLE,
S0028,32,bone_pain,N,1,359,365,NOT APPLICABLE,
S0028,33,cataract,N,2,362,365,NOT APPLICABLE,
S0029,1,dry_skin,N,2,37,38,NOT APPLICABLE,
S0029,2,rash/desquamation,N,1,47,48,NOT APPLICABLE,
S0029,3,dyspepsia,N,2,55,57,NOT APPLICABLE,
S0029,4,diarrhea,N,2,69,70,NOT APPLICABLE,
S0029,5,hypercholesterolemia,N,2,78,85,NOT APPLICABLE,
S0029,6,decrease_in_appetite,N,2,134,141,NOT APPLICABLE,
S0029,7,neutrophil_count_decreased,N,1,184,185,NOT APPLICABLE,
S0029,8,hypertension_variable,N,2,239,240,hold,DM034
S0029,9,peripheral_nervous_system_diseases,N,2,253,254,NOT APPLICABLE,
S0029,10,thrombocytopenia,N,1,266,267,hold,DM011
S0029,11,neuralgia,N,2,268,269,NOT APPLICABLE,
S0030,1,thrombocytopenia,N,1,17,18,hold,DM011
S0030,2,rash/desquamation,N,2,27,29,NOT APPLICABLE,
S0030,3,dizziness,N,1,68,69,NOT APPLICABLE,
S0030,4,neutropenia,N,1,102,103,NOT APPLICABLE,
S0030,5,hypertension_variable,N,1,102,103,hold,DM034
S0030,6,back_pain,N,2,103,104,NOT APPLICABLE,
S0030,7,neutrophil_count_decreased,N,1,105,106,NOT APPLICABLE,
S0030,8,bone_pain,N,1,126,127,NOT APPLICABLE,
S0030,9,decrease_in_appetite,N,1,137,141,NOT APPLICABLE,
S0030,10,peripheral_nervous_system_diseases,N,1,148,149,NOT APPLICABLE,
S0030,11,nasopharyngitis,N,2,154,155,NOT APPLICABLE,
S0030,12,spasm,N,1,209,210,NOT APPLICABLE,
S0030,13,dyspepsia,N,1,294,295,NOT APPLICABLE,
S0030,14,respiratory_tract_infections,Y,3,310,312,hold,DM028
S0030,15,hypercholesterolemia,N,2,322,323,NOT APPLICABLE,
S0030,16,hypertriglyceridemia,N,2,325,326,NOT APPLICABLE,
S0030,17,neuralgia,N,1,343,365,NOT APPLICABLE,
S0031,1,weight_loss,N,1,10,11,NOT APPLICABLE,
S0031,2,acute renal failure adverse events,N,1,15,16,NOT APPLICABLE,
S0031,3,leukopenia,N,2,40,41,NOT APPLICABLE,
S0031,4,neuropathic_pain,N,2,68,69,NOT APPLICABLE,
S0031,5,blurred_vision,N,2,81,85,NOT APPLICABLE,
S0031,6,hypocalcemia,N,2,104,105,NOT APPLICABLE,
S0031,7,diarrhea,N,1,113,114,NOT APPLICABLE,
S0031,8,pain,N,1,117,118,NOT APPLICABLE,
S0031,9,pain_in_limb,N,1,119,120,NOT APPLICABLE,
S0031,10,hypokalemia,N,2,129,130,NOT APPLICABLE,
S0031,11,acute renal failure,N,2,188,189,NOT APPLICABLE,
S0031,12,sensory_neuropathy,N,2,241,242,hold,DM030
S0031,13,rash/desquamation,N,1,273,274,NOT APPLICABLE,
S0031,14,vomiting,N,1,280,281,NOT APPLICABLE,
S0031,15,sleeplessness,N,2,287,288,NOT APPLICABLE,
S0031,16,neutrophil_count_decreased,N,2,323,324,NOT APPLICABLE,
S0032,1,pneumonia,Y,3,1,3,NOT APPLICABLE,
S0032,2,upper_respiratory_infections,N,2,5,6,NOT APPLICABLE,
S0032,3,dyspnea,N,1,10,11,hold,DM032
S0032,4,neuropathy-sensory,N,2,10,11,hold,DM030
S0032,5,thrombocytopenia,Y,3,13,15,hold,DM011
S0032,6,vomiting,N,2,15,16,NOT APPLICABLE,
S0032,7,neutrophil_count_decreased,N,1,15,16,NOT APPLICABLE,
S0032,8,diarrhea,Y,3,16,18,no_modification,DM040
S0032,9,blurred_vision,N,1,24,29,NOT APPLICABLE,
S0032,10,hypertension adverse events,N,2,24,29,hold,DM034
S0032,11,neuropathic_pain,N,2,25,29,NOT APPLICABLE,
S0032,12,hyperglycemia,N,1,26,29,NOT APPLICABLE,
S0032,13,pain_in_limb,N,1,34,35,NOT APPLICABLE,
S0032,14,weight_loss,N,1,38,39,NOT APPLICABLE,
S0032,15,hypertension,N,2,40,41,NOT APPLICABLE,
S0032,16,diarrhea,N,1,43,44,NOT APPLICABLE,
S0032,17,sleeplessness,N,2,46,47,NOT APPLICABLE,
S0032,18,hypokalemia,N,1,46,47,NOT APPLICABLE,
S0032,19,neutropenia,N,1,47,48,NOT APPLICABLE,
S0032,20,nausea,N,1,49,50,NOT APPLICABLE,
S0032,21,hypertension_variable,N,1,51,57,NOT APPLICABLE,
S0032,22,hypocalcemia,N,1,51,57,NOT APPLICABLE,
S0033,1,pain,N,1,20,21,NOT APPLICABLE,
S0033,2,upper_respiratory_infections,N,2,28,29,NOT APPLICABLE,
S0033,3,vomiting,N,1,28,29,NOT APPLICABLE,
S0033,4,hypertension,N,2,47,48,hold,DM034
S0033,5,weight_loss,N,2,68,69,NOT APPLICABLE,
S0033,6,neutropenia,N,2,75,76,NOT APPLICABLE,
S0033,7,peripheral_edema,N,2,81,85,NOT APPLICABLE,
S0033,8,diarrhea,N,1,107,113,NOT APPLICABLE,
S0033,9,hypocalcemia,N,2,108,113,NOT APPLICABLE,
S0033,10,hyperglycemia,N,1,127,128,NOT APPLICABLE,
S0033,11,fever,N,1,152,153,NOT APPLICABLE,
S0033,12,thrombocytopenia,Y,3,198,200,hold,DM011
S0033,13,spasm,N,1,199,200,NOT APPLICABLE,
S0033,14,blurred_vision,N,1,227,228,NOT APPLICABLE,
S0033,15,hypokalemia,N,2,277,281,NOT APPLICABLE,
S0033,16,upper_respiratory_infections,Y,3,280,282,hold,DM028
S0033,17,pain_in_limb,N,1,285,286,NOT APPLICABLE,
S0033,18,hemoglobin_normal_12_16_gm,N,2,290,291,NOT APPLICABLE,
S0033,19,thrombocytopenia,N,2,359,365,NOT APPLICABLE,
S0034,1,neutropenia,N,2,2,3,NOT APPLICABLE,
S0034,2,vomiting,N,1,3,4,NOT APPLICABLE,
S0034,3,bone_pain,N,1,5,6,NOT APPLICABLE,
S0034,4,non_cardiac_chest_pain,N,2,17,18,NOT APPLICABLE,
S0034,5,peripheral_nervous_system_diseases,N,2,18,19,NOT APPLICABLE,
S0034,6,anemia,N,1,43,44,NOT APPLICABLE,
S0034,7,pain_in_limb,N,2,43,44,NOT APPLICABLE,
S0034,8,asthenia,N,1,66,67,NOT APPLICABLE,
S0034,9,decrease_in_appetite,N,2,71,72,NOT APPLICABLE,
S0034,10,influenza,N,2,74,75,NOT APPLICABLE,
S0034,11,neutrophil_count_decreased,N,2,99,100,NOT APPLICABLE,
S0034,12,leukopenia,N,2,105,106,NOT APPLICABLE,
S0034,13,rash/desquamation,N,1,121,122,NOT APPLICABLE,
S0034,14,neuralgia,N,2,135,141,NOT APPLICABLE,
S0034,15,neuropathy-sensory,N,1,138,141,NOT APPLICABLE,
S0034,16,fever,N,1,147,148,NOT APPLICABLE,
S0034,17,thrombocytopenia,N,2,159,160,hold,DM011
S0034,18,hypertriglyceridemia,N,1,160,161,NOT APPLICABLE,
S0034,19,hypertension_variable,N,1,219,225,hold,DM034
S0034,20,dry_skin,N,1,219,225,NOT APPLICABLE,
S0034,21,rash_erythematous_macules_or_papules,N,1,223,225,NOT APPLICABLE,
S0034,22,spasm,N,1,239,240,NOT APPLICABLE,
S0034,23,fatigue,N,2,240,241,NOT APPLICABLE,
S0034,24,peripheral_edema,N,1,244,245,NOT APPLICABLE,
S0034,25,thrombosis/thrombus/embolism,Y,3,250,254,NOT APPLICABLE,
S0034,26,dizziness,N,1,252,253,NOT APPLICABLE,
S0034,27,dyspepsia,N,1,254,255,NOT APPLICABLE,
S0034,28,respiratory_tract_infections,Y,3,256,258,hold,DM028
S0034,29,hyperglycemia,Y,3,260,262,NOT APPLICABLE,
S0034,30,gastroenteritis,N,2,269,270,NOT APPLICABLE,
S0034,31,diarrhea,N,1,273,274,NOT APPLICABLE,
S0034,32,cataract,N,1,287,288,NOT APPLICABLE,
S0034,33,back_pain,N,1,297,298,NOT APPLICABLE,
S0034,34,hypertension,N,1,297,298,hold,DM034
S0034,35,"potassium,_serum-low_(hypokalemia)",N,1,300,301,NOT APPLICABLE,
S0034,36,hypercholesterolemia,N,2,304,309,NOT APPLICABLE,
S0034,37,nasopharyngitis,N,2,361,365,NOT APPLICABLE,
S0035,1,dizziness,N,2,11,12,NOT APPLICABLE,
S0035,2,hyperglycemia,N,1,29,30,NOT APPLICABLE,
S0035,3,vomiting,N,1,45,46,NOT APPLICABLE,
S0035,4,upper_respiratory_infections,N,2,100,101,NOT APPLICABLE,
S0035,5,decreased_platelet_count,N,1,106,113,hold,DM011
S0035,6,pain_in_limb,N,1,109,113,NOT APPLICABLE,
S0035,7,hypertension adverse events,N,1,113,114,hold,DM034
S0035,8,neutrophil_count_decreased,N,2,121,122,NOT APPLICABLE,
S0035,9,hypocalcemia,N,2,194,197,NOT APPLICABLE,
S0035,10,blurred_vision,N,2,203,204,NOT APPLICABLE,
S0035,11,constipation,N,1,210,211,NOT APPLICABLE,
S0035,12,anemia,N,2,227,228,NOT APPLICABLE,
S0035,13,nausea,N,1,270,271,NOT APPLICABLE,
S0036,1,dizziness,N,1,2,3,NOT APPLICABLE,
S0036,2,vomiting,N,2,3,4,NOT APPLICABLE,
S0036,3,fatigue,N,2,7,8,NOT APPLICABLE,
S0036,4,hypertension_variable,N,1,13,14,hold,DM034
S0036,5,sleeplessness,N,1,14,15,NOT APPLICABLE,
S0036,6,pain_in_limb,N,1,25,29,NOT APPLICABLE,
S0036,7,upper_respiratory_infections,N,1,37,38,NOT APPLICABLE,
S0036,8,peripheral_edema,N,1,39,40,NOT APPLICABLE,
S0036,9,spasm,N,1,41,42,NOT APPLICABLE,
S0036,10,diarrhea,N,1,48,49,NOT APPLICABLE,
S0036,11,hyperglycemia,N,1,56,57,NOT APPLICABLE,
S0036,12,hypocalcemia,N,2,67,68,NOT APPLICABLE,
S0036,13,influenza,N,1,71,72,NOT APPLICABLE,
S0036,14,blurred_vision,N,2,82,85,NOT APPLICABLE,
S0036,15,neutrophil_count_decreased,N,2,86,87,NOT APPLICABLE,
S0037,1,decreased_platelet_count,N,1,35,36,hold,DM011
S0037,2,hypocalcemia,N,2,47,48,NOT APPLICABLE,
S0037,3,neuropathic_pain,N,1,68,69,NOT APPLICABLE,
S0037,4,spasm,N,2,74,75,NOT APPLICABLE,
S0037,5,bone_pain,N,2,74,75,NOT APPLICABLE,
S0037,6,hypokalemia,N,2,93,94,NOT APPLICABLE,
S0037,7,weight_loss,N,2,109,113,NOT APPLICABLE,
S0037,8,peripheral_edema,N,1,113,114,NOT APPLICABLE,
S0037,9,anemia,N,1,120,121,NOT APPLICABLE,
S0037,10,dizziness,N,1,125,126,NOT APPLICABLE,
S0037,11,hyperglycemia,N,1,160,161,NOT APPLICABLE,
S0038,1,cataract,N,1,6,7,NOT APPLICABLE,
S0038,2,thrombocytopenia,N,2,54,57,hold,DM011
S0038,3,rash/desquamation,N,1,183,184,NOT APPLICABLE,
S0038,4,hypercholesterolemia,N,2,315,316,NOT APPLICABLE,
S0039,1,fever,Y,3,2,4,NOT APPLICABLE,
S0039,2,neuralgia,N,1,6,7,NOT APPLICABLE,
S0039,3,neuropathy-sensory,N,1,18,19,NOT APPLICABLE,
S0039,4,nausea,N,1,23,29,NOT APPLICABLE,
S0039,5,neuropathic_pain,N,2,41,42,NOT APPLICABLE,
S0039,6,hypocalcemia,N,1,47,48,NOT APPLICABLE,
S0039,7,respiratory_tract_infections,Y,3,56,58,hold,DM028
S0039,8,hypertriglyceridemia,N,1,57,58,NOT APPLICABLE,
S0039,9,lower_respiratory_tract_infection,Y,3,60,62,hold,DM028
S0039,10,rash/desquamation,N,1,65,66,NOT APPLICABLE,
S0039,11,thrombosis/thrombus/embolism,N,1,75,76,NOT APPLICABLE,
S0039,12,fever,N,1,80,85,NOT APPLICABLE,
S0039,13,cataract,N,2,107,113,NOT APPLICABLE,
S0039,14,pain_in_limb,N,1,117,118,NOT APPLICABLE,
S0039,15,anemia,N,1,119,120,NOT APPLICABLE,
S0039,16,sleeplessness,N,1,119,120,NOT APPLICABLE,
S0039,17,neutrophil_count_decreased,N,1,140,141,NOT APPLICABLE,
S0039,18,thrombocytopenia,N,1,143,144,hold,DM011
S0039,19,sepsis,Y,3,151,153,NOT APPLICABLE,
S0039,20,bone_pain,N,2,185,186,NOT APPLICABLE,
S0039,21,acute renal failure adverse events,N,1,186,187,NOT APPLICABLE,
S0039,22,diarrhea,N,2,206,207,NOT APPLICABLE,
S0039,23,dizziness,N,2,213,214,NOT APPLICABLE,
S0039,24,hypertension,N,1,214,215,hold,DM034
S0039,25,nasopharyngitis,N,2,215,216,NOT APPLICABLE,
S0039,26,spasm,N,1,219,225,NOT APPLICABLE,
S0039,27,asthenia,N,1,220,225,NOT APPLICABLE,
S0039,28,hypertension adverse events,N,2,225,226,hold,DM034
S0039,29,fatigue,N,1,229,230,NOT APPLICABLE,
S0039,30,decrease_in_appetite,N,2,238,239,NOT APPLICABLE,
S0039,31,headache,N,2,248,253,NOT APPLICABLE,
S0039,32,neutropenia,N,2,250,253,NOT APPLICABLE,
S0039,33,peripheral_nervous_system_diseases,N,2,253,254,NOT APPLICABLE,
S0039,34,peripheral_edema,N,2,266,267,NOT APPLICABLE,
S0039,35,dysgeusia,N,1,275,281,NOT APPLICABLE,
S0039,36,dyspepsia,N,1,276,281,NOT APPLICABLE,
S0039,37,hypertension_variable,N,1,288,289,hold,DM034
S0039,38,hypercholesterolemia,N,2,299,300,NOT APPLICABLE,
S0039,39,atrial_fibrillation,Y,3,307,310,NOT APPLICABLE,
S0039,40,vomiting,N,2,317,318,NOT APPLICABLE,
S0039,41,bronchitis,Y,3,317,319,NOT APPLICABLE,
S0039,42,hypertension,N,1,318,319,hold,DM034
S0039,43,sensory_neuropathy,N,1,331,337,NOT APPLICABLE,
S0039,44,hemoglobin_normal_12_16_gm,N,1,338,365,NOT APPLICABLE,
S0039,45,back_pain,N,1,362,365,NOT APPLICABLE,
S0039,46,influenza,N,2,365,393,NOT APPLICABLE,
S0040,1,hyperglycemia,N,2,4,5,NOT APPLICABLE,
S0040,2,fatigue,N,2,6,7,NOT APPLICABLE,
S0040,3,diarrhea,N,1,6,7,NOT APPLICABLE,
S0040,4,blurred_vision,N,2,7,8,NOT APPLICABLE,
S0040,5,dizziness,N,1,15,16,NOT APPLICABLE,
S0040,6,hypocalcemia,N,2,15,16,NOT APPLICABLE,
S0040,7,hypertension_variable,N,1,23,29,hold,DM034
S0040,8,anemia,N,1,30,31,NOT APPLICABLE,
S0040,9,respiratory_tract_infections,N,1,31,32,NOT APPLICABLE,
S0040,10,spasm,N,1,32,33,NOT APPLICABLE,
S0040,11,peripheral_edema,N,2,35,36,NOT APPLICABLE,
S0040,12,cataract,N,1,37,38,NOT APPLICABLE,
S0040,13,neuropathy-sensory,N,2,46,47,hold,DM030
S0040,14,upper_respiratory_infections,N,1,83,85,NOT APPLICABLE,
S0040,15,hypertension adverse events,N,2,88,89,NOT APPLICABLE,
S0040,16,pain_in_limb,N,1,91,92,NOT APPLICABLE,
S0041,1,thrombocytopenia,N,2,136,141,hold,DM011
S0041,2,rash/desquamation,N,1,155,156,NOT APPLICABLE,
S0041,3,hypercholesterolemia,N,2,162,169,NOT APPLICABLE,
S0041,4,peripheral_nervous_system_diseases,N,1,174,175,NOT APPLICABLE,
S0041,5,neuralgia,N,2,273,274,NOT APPLICABLE,
S0042,1,upper_respiratory_infections,Y,3,43,45,hold,DM028
S0042,2,upper_respiratory_infections,N,2,54,57,NOT APPLICABLE,
S0042,3,nausea,N,1,154,155,NOT APPLICABLE,
S0042,4,spasm,N,2,169,170,NOT APPLICABLE,
S0042,5,neuropathic_pain,N,2,241,242,NOT APPLICABLE,
S0042,6,peripheral_nervous_system_diseases,N,2,265,266,NOT APPLICABLE,
S0042,7,blurred_vision,N,2,267,268,NOT APPLICABLE,
S0042,8,influenza,N,1,270,271,NOT APPLICABLE,
S0042,9,myalgia,N,1,282,283,NOT APPLICABLE,
S0042,10,hyponatremia,N,1,282,283,NOT APPLICABLE,
S0042,11,anemia,N,1,314,315,NOT APPLICABLE,
S0042,12,hypocalcemia,N,2,329,330,NOT APPLICABLE,
S0042,13,constipation,N,1,364,365,NOT APPLICABLE,
S0043,1,sleeplessness,N,1,7,8,NOT APPLICABLE,
S0043,2,hypocalcemia,N,1,16,17,NOT APPLICABLE,
S0043,3,anemia,N,1,33,34,NOT APPLICABLE,
S0043,4,nausea,N,1,35,36,NOT APPLICABLE,
S0043,5,upper_respiratory_infections,N,1,48,49,NOT APPLICABLE,
S0043,6,cardiac failure events,N,2,50,57,NOT APPLICABLE,
S0043,7,pain_in_limb,N,2,51,57,NOT APPLICABLE,
S0043,8,hypertension_variable,N,2,69,70,hold,DM034
S0043,9,vomiting,N,2,81,85,NOT APPLICABLE,
S0043,10,hypertension,N,2,96,97,hold,DM034
S0043,11,cardiac failure events,N,2,103,104,NOT APPLICABLE,
S0043,12,acute renal failure,N,2,162,169,NOT APPLICABLE,
S0043,13,fatigue,N,1,167,169,NOT APPLICABLE,
S0043,14,spasm,N,2,177,178,NOT APPLICABLE,
S0043,15,influenza,N,2,178,179,NOT APPLICABLE,
S0043,16,dizziness,N,2,184,185,NOT APPLICABLE,
S0043,17,diarrhea,N,2,221,225,NOT APPLICABLE,
S0044,1,neuropathy-sensory,N,2,34,35,hold,DM030
S0044,2,thrombocytopenia,N,2,135,141,hold,DM011
S0044,3,hypercholesterolemia,N,2,155,156,NOT APPLICABLE,
S0044,4,bone_pain,N,1,166,169,NOT APPLICABLE,
S0044,5,neutrophil_count_decreased,N,2,193,197,NOT APPLICABLE,
S0044,6,neuralgia,N,2,232,233,NOT APPLICABLE,
S0044,7,rash/desquamation,N,1,278,281,NOT APPLICABLE,
S0044,8,anemia,N,2,282,283,NOT APPLICABLE,
S0044,9,dizziness,N,1,290,291,NOT APPLICABLE,
S0044,10,hypertension_variable,N,2,304,309,hold,DM034
S0044,11,decrease_in_appetite,N,2,340,365,NOT APPLICABLE,
S0044,12,dyspepsia,N,1,351,365,NOT APPLICABLE,
S0044,13,sensory_neuropathy,N,1,366,393,NOT APPLICABLE,
S0045,1,respiratory_tract_infections,N,2,1,2,NOT APPLICABLE,
S0045,2,blurred_vision,N,2,16,17,NOT APPLICABLE,
S0045,3,sleeplessness,N,2,22,29,NOT APPLICABLE,
S0045,4,peripheral_edema,N,2,42,43,NOT APPLICABLE,
S0045,5,neutropenia,N,1,67,68,NOT APPLICABLE,
S0045,6,hypocalcemia,N,1,77,78,NOT APPLICABLE,
S0045,7,anemia,N,1,83,85,NOT APPLICABLE,
S0045,8,dizziness,N,2,89,90,NOT APPLICABLE,
S0045,9,neuropathy-motor,N,2,91,92,hold,DM030
S0045,10,pain,N,1,103,104,NOT APPLICABLE,
S0045,11,acute renal failure,N,1,103,104,NOT APPLICABLE,
S0045,12,vomiting,N,1,108,113,NOT APPLICABLE,
S0045,13,hyperglycemia,N,2,111,113,NOT APPLICABLE,
S0045,14,nausea,N,2,126,127,NOT APPLICABLE,
S0045,15,hypertension,N,1,129,130,hold,DM034
S0045,16,cardiac failure events,N,1,147,148,NOT APPLICABLE,
S0045,17,constipation,N,2,155,156,NOT APPLICABLE,
S0045,18,upper_respiratory_infections,N,1,158,159,NOT APPLICABLE,
S0045,19,neutrophil_count_decreased,N,1,199,200,NOT APPLICABLE,
S0045,20,diarrhea,N,1,203,204,NOT APPLICABLE,
S0045,21,upper_respiratory_infections,Y,3,233,235,hold,DM028
S0045,22,fatigue,N,1,291,292,NOT APPLICABLE,
S0046,1,spasm,N,1,25,29,NOT APPLICABLE,
S0046,2,influenza,N,1,48,49,NOT APPLICABLE,
S0046,3,diarrhea,N,2,61,62,NOT APPLICABLE,
S0046,4,acute renal failure adverse events,N,2,131,132,NOT APPLICABLE,
S0046,5,neuropathy-sensory,N,2,153,154,hold,DM030
S0046,6,blurred_vision,N,2,162,169,NOT APPLICABLE,
S0046,7,neuropathy-motor,N,2,173,174,hold,DM030
S0046,8,hypertension adverse events,N,1,190,197,hold,DM034
S0046,9,nausea,N,1,201,202,NOT APPLICABLE,
S0046,10,pain_in_limb,N,2,219,225,NOT APPLICABLE,
S0046,11,hypocalcemia,N,2,219,225,NOT APPLICABLE,
S0046,12,anemia,N,1,270,271,NOT APPLICABLE,
S0046,13,sleeplessness,N,1,283,284,NOT APPLICABLE,
S0046,14,rash/desquamation,N,2,284,285,NOT APPLICABLE,
S0046,15,fatigue,N,2,296,297,NOT APPLICABLE,
S0046,16,hypertension_variable,N,2,315,316,hold,DM034
S0046,17,neutrophil_count_decreased,N,2,341,365,NOT APPLICABLE,
S0046,18,hypertension,N,1,347,365,NOT APPLICABLE,
S0046,19,weight_loss,N,1,357,365,NOT APPLICABLE,
S0047,1,hypercholesterolemia,N,2,40,41,NOT APPLICABLE,
S0047,2,vomiting,N,2,60,61,NOT APPLICABLE,
S0047,3,neutrophil_count_decreased,N,1,61,62,NOT APPLICABLE,
S0047,4,pain_in_limb,N,2,73,74,NOT APPLICABLE,
S0047,5,sensory_neuropathy,N,1,96,97,NOT APPLICABLE,
S0047,6,neuralgia,N,2,130,131,NOT APPLICABLE,
S0047,7,diarrhea,N,1,143,144,NOT APPLICABLE,
S0047,8,decrease_in_appetite,N,1,164,169,NOT APPLICABLE,
S0047,9,thrombocytopenia,N,2,216,217,hold,DM011
S0047,10,hypertension_variable,N,1,220,225,hold,DM034
S0047,11,rash/desquamation,N,2,224,225,NOT APPLICABLE,
S0048,1,sensory_neuropathy,N,2,9,10,hold,DM030
S0048,2,hypertriglyceridemia,N,1,18,19,NOT APPLICABLE,
S0048,3,back_pain,N,2,24,29,NOT APPLICABLE,
S0048,4,nausea,N,2,26,29,NOT APPLICABLE,
S0048,5,diarrhea,N,1,27,29,NOT APPLICABLE,
S0048,6,hemoglobin_normal_12_16_gm,N,2,28,29,NOT APPLICABLE,
S0048,7,influenza,N,1,43,44,NOT APPLICABLE,
S0048,8,peripheral_nervous_system_diseases,N,2,51,57,NOT APPLICABLE,
S0048,9,thrombosis/thrombus/embolism,Y,3,52,58,NOT APPLICABLE,
S0048,10,hypercholesterolemia,N,1,53,57,NOT APPLICABLE,
S0048,11,dysgeusia,N,1,55,57,NOT APPLICABLE,
S0048,12,"potassium,_serum-low_(hypokalemia)",N,2,55,57,NOT APPLICABLE,
S0048,13,bone_pain,N,1,72,73,NOT APPLICABLE,
S0048,14,neutrophil_count_decreased,N,1,76,77,NOT APPLICABLE,
S0048,15,decrease_in_appetite,N,2,86,87,NOT APPLICABLE,
S0048,16,dyspepsia,N,1,88,89,NOT APPLICABLE,
S0048,17,constipation,N,2,89,90,NOT APPLICABLE,
S0048,18,dry_skin,N,1,95,96,NOT APPLICABLE,
S0048,19,pneumonia,Y,3,98,100,NOT APPLICABLE,
S0048,20,leukopenia,N,1,101,102,NOT APPLICABLE,
S0048,21,anemia,N,1,102,103,NOT APPLICABLE,
S0048,22,gastroenteritis,N,1,102,103,NOT APPLICABLE,
S0048,23,hypertension_variable,N,2,105,106,hold,DM034
S0048,24,fever,Y,3,108,114,NOT APPLICABLE,
S0048,25,neutropenia,N,1,112,113,NOT APPLICABLE,
S0048,26,neuralgia,N,1,112,113,NOT APPLICABLE,
S0048,27,hyperglycemia,N,2,117,118,NOT APPLICABLE,
S0048,28,neuropathy-sensory,N,2,121,122,hold,DM030
S0048,29,headache,N,2,127,128,NOT APPLICABLE,
S0048,30,rash/desquamation,N,2,130,131,NOT APPLICABLE,
S0048,31,pain_in_limb,N,1,136,141,NOT APPLICABLE,
S0048,32,thrombocytopenia,N,2,140,141,hold,DM011
S0048,33,peripheral_edema,N,2,164,169,NOT APPLICABLE,
S0049,1,neutrophil_count_decreased,N,2,131,132,NOT APPLICABLE,
S0049,2,hypertension_variable,N,1,170,171,hold,DM034
S0049,3,rash/desquamation,N,1,183,184,NOT APPLICABLE,
S0049,4,thrombocytopenia,N,1,196,197,hold,DM011
S0049,5,hypercholesterolemia,N,1,323,324,NOT APPLICABLE,
S0050,1,hypercholesterolemia,N,1,71,72,NOT APPLICABLE,
S0050,2,neutrophil_count_decreased,N,2,96,97,NOT APPLICABLE,
S0050,3,lower_respiratory_tract_infection,Y,3,97,99,hold,DM028
S0050,4,hypertension,N,1,125,126,hold,DM034
S0050,5,pain_in_limb,N,2,136,141,NOT APPLICABLE,
S0050,6,bone_pain,N,1,140,141,NOT APPLICABLE,
S0050,7,rash/desquamation,N,1,144,145,NOT APPLICABLE,
S0050,8,hypertension_variable,N,1,173,174,hold,DM034
S0050,9,dizziness,N,1,174,175,NOT APPLICABLE,
S0050,10,thrombocytopenia,N,2,232,233,hold,DM011
S0050,11,neuralgia,N,1,243,244,NOT APPLICABLE,
S0050,12,respiratory_tract_infections,Y,3,271,273,hold,DM028
S0050,13,non_cardiac_chest_pain,N,2,315,316,NOT APPLICABLE,
S0051,1,anemia,N,1,80,85,NOT APPLICABLE,
S0051,2,hypertension_variable,N,1,105,106,hold,DM034
S0051,3,spasm,N,1,158,159,NOT APPLICABLE,
S0051,4,hypoalbuminemia,N,1,172,173,NOT APPLICABLE,
S0051,5,neutropenia,N,2,174,175,NOT APPLICABLE,
S0051,6,neuropathy-sensory,N,1,176,177,NOT APPLICABLE,
S0051,7,non_cardiac_chest_pain,N,2,222,225,NOT APPLICABLE,
S0051,8,hypokalemia,N,1,233,234,NOT APPLICABLE,
S0051,9,urinary_tract_infection,Y,3,242,244,hold,DM028
S0051,10,hypocalcemia,N,1,278,281,NOT APPLICABLE,
S0051,11,back_pain,N,1,337,365,NOT APPLICABLE,
S0051,12,peripheral_edema,N,2,337,365,NOT APPLICABLE,
S0052,1,hypertension adverse events,N,1,5,6,hold,DM034
S0052,2,sleeplessness,N,2,40,41,NOT APPLICABLE,
S0052,3,cataract,N,1,41,42,NOT APPLICABLE,
S0052,4,peripheral_edema,N,2,75,76,NOT APPLICABLE,
S0052,5,anemia,N,1,98,99,NOT APPLICABLE,
S0052,6,pain_in_limb,N,2,101,102,NOT APPLICABLE,
S0052,7,hypocalcemia,N,2,204,205,NOT APPLICABLE,
S0052,8,fatigue,N,1,211,212,NOT APPLICABLE,
S0052,9,hyperglycemia,N,2,214,215,NOT APPLICABLE,
S0052,10,blurred_vision,N,1,250,253,NOT APPLICABLE,
S0052,11,nausea,N,1,261,262,NOT APPLICABLE,
S0052,12,dizziness,N,1,263,264,NOT APPLICABLE,
S0052,13,acute renal failure adverse events,N,1,275,281,NOT APPLICABLE,
S0052,14,neutropenia,N,2,298,299,NOT APPLICABLE,
S0052,15,leukopenia,N,2,313,314,NOT APPLICABLE,
S0052,16,hypoalbuminemia,N,1,328,329,NOT APPLICABLE,
S0052,17,influenza,N,2,346,365,NOT APPLICABLE,
S0053,1,neuralgia,N,2,7,8,NOT APPLICABLE,
S0053,2,hypertension_variable,N,2,42,43,hold,DM034
S0053,3,thrombocytopenia,N,1,104,105,hold,DM011
S0053,4,hypercholesterolemia,N,2,125,126,NOT APPLICABLE,
S0053,5,leukopenia,N,1,181,182,NOT APPLICABLE,
S0053,6,neutrophil_count_decreased,N,1,194,197,NOT APPLICABLE,
S0053,7,rash/desquamation,N,2,224,225,NOT APPLICABLE,
S0054,1,hypoalbuminemia,N,2,19,20,NOT APPLICABLE,
S0054,2,pneumonia,Y,3,51,58,NOT APPLICABLE,
S0054,3,respiratory_tract_infections,N,1,53,57,NOT APPLICABLE,
S0054,4,spasm,N,1,69,70,NOT APPLICABLE,
S0054,5,diarrhea,N,1,71,72,NOT APPLICABLE,
S0054,6,pain,N,2,97,98,NOT APPLICABLE,
S0054,7,rash/desquamation,N,2,106,113,NOT APPLICABLE,
S0054,8,constipation,N,2,123,124,NOT APPLICABLE,
S0054,9,neuropathic_pain,N,2,128,129,NOT APPLICABLE,
S0054,10,hyperglycemia,N,2,137,141,NOT APPLICABLE,
S0054,11,hypertension,N,1,160,161,hold,DM034
S0054,12,blurred_vision,N,1,169,170,NOT APPLICABLE,
S0054,13,acute renal failure,N,1,169,170,NOT APPLICABLE,
S0054,14,nausea,N,1,182,183,NOT APPLICABLE,
S0054,15,neutrophil_count_decreased,N,2,193,197,NOT APPLICABLE,
S0054,16,acute renal failure adverse events,N,2,252,253,NOT APPLICABLE,
S0054,17,fever,N,1,271,272,NOT APPLICABLE,
S0054,18,dizziness,N,1,301,302,NOT APPLICABLE,
S0054,19,neutropenia,N,1,306,309,NOT APPLICABLE,
S0054,20,neuropathy-sensory,N,1,316,317,NOT APPLICABLE,
S0054,21,cataract,N,2,323,324,NOT APPLICABLE,
S0054,22,decrease_in_appetite,N,2,336,337,NOT APPLICABLE,
S0054,23,hypertension adverse events,N,2,363,365,NOT APPLICABLE,
S0055,1,hypoalbuminemia,N,1,25,29,NOT APPLICABLE,
S0055,2,peripheral_edema,N,1,38,39,NOT APPLICABLE,
S0055,3,hypocalcemia,N,1,50,57,NOT APPLICABLE,
S0055,4,hypertension,N,1,63,64,hold,DM034
S0055,5,hypertension_variable,N,2,83,85,hold,DM034
S0055,6,hypertension adverse events,N,2,86,87,hold,DM034
S0055,7,vomiting,N,2,92,93,NOT APPLICABLE,
S0055,8,hyperglycemia,N,1,113,114,NOT APPLICABLE,
S0055,9,hypertension,N,2,127,128,hold,DM034
S0055,10,pain_in_limb,N,1,163,169,NOT APPLICABLE,
S0055,11,anemia,N,2,166,169,NOT APPLICABLE,
S0055,12,blurred_vision,N,2,167,169,NOT APPLICABLE,
S0055,13,sleeplessness,N,2,183,184,NOT APPLICABLE,
S0055,14,sensory_neuropathy,N,1,265,266,NOT APPLICABLE,
S0055,15,weight_loss,N,2,268,269,NOT APPLICABLE,
S0055,16,thrombocytopenia,Y,3,300,302,hold,DM011
S0055,17,neuropathy-sensory,N,2,327,328,hold,DM030
S0056,1,respiratory_tract_infections,Y,3,18,20,hold,DM028
S0056,2,hypertension,N,2,35,36,hold,DM034
S0056,3,dyspepsia,N,2,36,37,NOT APPLICABLE,
S0056,4,back_pain,N,2,37,38,NOT APPLICABLE,
S0056,5,thrombocytopenia,N,2,38,39,hold,DM011
S0056,6,hypercholesterolemia,N,2,39,40,NOT APPLICABLE,
S0056,7,neutrophil_count_decreased,N,1,39,40,NOT APPLICABLE,
S0056,8,constipation,N,1,40,41,NOT APPLICABLE,
S0056,9,hypertension,N,2,42,43,hold,DM034
S0056,10,sensory_neuropathy,N,2,47,48,hold,DM030
S0056,11,hypocalcemia,N,2,48,49,NOT APPLICABLE,
S0056,12,neuropathy-sensory,N,1,56,57,NOT APPLICABLE,
S0056,13,anemia,N,1,58,59,NOT APPLICABLE,
S0056,14,thrombosis/thrombus/embolism,Y,3,60,62,NOT APPLICABLE,
S0056,15,lower_respiratory_tract_infection,Y,3,91,93,hold,DM028
S0056,16,leukopenia,N,2,94,95,NOT APPLICABLE,
S0056,17,neutropenia,N,1,119,120,NOT APPLICABLE,
S0056,18,pain_in_limb,N,2,119,120,NOT APPLICABLE,
S0056,19,hypertriglyceridemia,N,2,126,127,NOT APPLICABLE,
S0056,20,decrease_in_appetite,N,1,129,130,NOT APPLICABLE,
S0056,21,vomiting,N,1,133,134,NOT APPLICABLE,
S0056,22,spasm,N,1,142,143,NOT APPLICABLE,
S0056,23,falls,N,2,144,145,NOT APPLICABLE,
S0056,24,anorexia,N,2,145,146,NOT APPLICABLE,
S0056,25,bone_pain,N,2,160,161,NOT APPLICABLE,
S0056,26,peripheral_nervous_system_diseases,N,2,168,169,NOT APPLICABLE,
S0056,27,fever,Y,3,181,183,NOT APPLICABLE,
S0056,28,respiratory_tract_infections,N,1,188,189,NOT APPLICABLE,
S0056,29,cataract,N,1,201,202,NOT APPLICABLE,
S0056,30,sleeplessness,N,1,209,210,NOT APPLICABLE,
S0056,31,hyperglycemia,N,2,213,214,NOT APPLICABLE,
S0056,32,rash/desquamation,N,1,216,217,NOT APPLICABLE,
S0056,33,dizziness,N,2,217,218,NOT APPLICABLE,
S0056,34,hypertension_variable,N,2,218,225,NOT APPLICABLE,
S0056,35,neuralgia,N,1,223,225,NOT APPLICABLE,
S0057,1,rash/desquamation,N,2,6,7,NOT APPLICABLE,
S0057,2,influenza,N,1,17,18,NOT APPLICABLE,
S0057,3,blurred_vision,N,2,18,19,NOT APPLICABLE,
S0057,4,sleeplessness,N,1,45,46,NOT APPLICABLE,
S0057,5,neutrophil_count_decreased,N,1,48,49,NOT APPLICABLE,
S0057,6,fatigue,N,2,55,57,NOT APPLICABLE,
S0057,7,neuropathy-motor,N,2,56,57,hold,DM030
S0057,8,acute renal failure adverse events,N,1,60,61,NOT APPLICABLE,
S0057,9,nausea,N,1,62,63,NOT APPLICABLE,
S0057,10,dizziness,N,1,69,70,NOT APPLICABLE,
S0057,11,pain,N,1,75,76,NOT APPLICABLE,
S0057,12,hypertension adverse events,N,1,82,85,NOT APPLICABLE,
S0058,1,diarrhea,N,2,1,2,NOT APPLICABLE,
S0058,2,back_pain,N,1,1,2,NOT APPLICABLE,
S0058,3,rash/desquamation,N,2,4,5,NOT APPLICABLE,
S0058,4,dyspepsia,N,1,10,11,NOT APPLICABLE,
S0058,5,neutropenia,N,2,12,13,NOT APPLICABLE,
S0058,6,decreased_platelet_count,N,2,13,14,hold,DM011
S0058,7,dizziness,N,2,19,20,NOT APPLICABLE,
S0058,8,peripheral_nervous_system_diseases,N,2,25,29,NOT APPLICABLE,
S0058,9,hypertension_variable,N,2,28,29,hold,DM034
S0058,10,bone_pain,N,2,36,37,NOT APPLICABLE,
S0058,11,thrombocytopenia,N,2,37,38,hold,DM011
S0058,12,decrease_in_appetite,N,2,50,57,NOT APPLICABLE,
S0058,13,influenza,N,2,56,57,NOT APPLICABLE,
S0058,14,neutrophil_count_decreased,N,1,68,69,NOT APPLICABLE,
S0058,15,leukopenia,N,2,70,71,NOT APPLICABLE,
S0058,16,spasm,N,1,70,71,NOT APPLICABLE,
S0058,17,respiratory_tract_infections,Y,3,72,74,NOT APPLICABLE,
S0058,18,fever,N,1,73,74,NOT APPLICABLE,
S0058,19,vomiting,N,1,78,85,NOT APPLICABLE,
S0058,20,neuralgia,N,2,80,85,NOT APPLICABLE,
S0058,21,hypercholesterolemia,N,2,81,85,NOT APPLICABLE,
S0058,22,anemia,N,2,85,86,NOT APPLICABLE,
S0058,23,pain_in_limb,N,2,86,87,NOT APPLICABLE,
S0058,24,nausea,N,1,90,91,NOT APPLICABLE,
S0059,1,peripheral_nervous_system_diseases,N,1,15,16,NOT APPLICABLE,
S0059,2,sleeplessness,N,1,40,41,NOT APPLICABLE,
S0059,3,weight_loss,N,1,40,41,NOT APPLICABLE,
S0059,4,anemia,N,1,84,85,NOT APPLICABLE,
S0059,5,vomiting,N,1,88,89,NOT APPLICABLE,
S0059,6,neutropenia,N,2,122,123,NOT APPLICABLE,
S0059,7,diarrhea,N,2,161,162,NOT APPLICABLE,
S0059,8,pain,N,1,246,253,NOT APPLICABLE,
S0059,9,coughing,N,2,270,271,NOT APPLICABLE,
S0059,10,neutrophil_count_decreased,N,1,271,272,NOT APPLICABLE,
S0059,11,acute renal failure,N,2,271,272,NOT APPLICABLE,
S0059,12,hypocalcemia,N,2,293,294,NOT APPLICABLE,
S0060,1,hypocalcemia,N,1,2,3,NOT APPLICABLE,
S0060,2,anorexia,N,2,5,6,NOT APPLICABLE,
S0060,3,hyperglycemia,N,2,26,29,NOT APPLICABLE,
S0060,4,decreased_platelet_count,N,2,33,34,hold,DM011
S0060,5,arthralgia,N,2,50,57,NOT APPLICABLE,
S0060,6,hypoalbuminemia,N,2,53,57,NOT APPLICABLE,
S0060,7,constipation,N,2,66,67,NOT APPLICABLE,
S0060,8,infectious_lung_disorder,Y,3,83,86,NOT APPLICABLE,
S0060,9,hypertension adverse events,N,2,110,113,hold,DM034
S0060,10,blurred_vision,N,2,123,124,NOT APPLICABLE,
S0060,11,fatigue,N,1,177,178,NOT APPLICABLE,
S0060,12,dizziness,N,2,218,225,NOT APPLICABLE,
S0060,13,peripheral_edema,N,2,241,242,NOT APPLICABLE,
S0060,14,upper_respiratory_infections,N,1,264,265,NOT APPLICABLE,
S0060,15,diarrhea,N,1,310,311,NOT APPLICABLE,
S0060,16,dry_skin,N,2,319,320,NOT APPLICABLE,
S0060,17,weight_loss,N,2,330,337,NOT APPLICABLE,
S0060,18,dehydration,N,1,333,337,NOT APPLICABLE,
S0060,19,anemia,N,2,352,365,NOT APPLICABLE,
S0060,20,neuropathic_pain,N,2,360,365,NOT APPLICABLE,
S0061,1,respiratory_tract_infections,N,2,26,29,NOT APPLICABLE,
S0061,2,blurred_vision,N,1,31,32,NOT APPLICABLE,
S0061,3,dyspnea,Y,3,40,42,hold,DM032
S0061,4,weight_loss,N,1,44,45,NOT APPLICABLE,
S0061,5,sleeplessness,N,2,50,57,NOT APPLICABLE,
S0061,6,peripheral_edema,N,1,64,65,NOT APPLICABLE,
S0061,7,hypertension,N,2,66,67,hold,DM034
S0061,8,neuropathy-sensory,N,2,98,99,hold,DM030
S0061,9,abdominal_pain,N,2,135,141,NOT APPLICABLE,
S0061,10,diarrhea,N,2,142,143,NOT APPLICABLE,
S0061,11,anemia,N,2,156,157,NOT APPLICABLE,
S0061,12,pain_in_limb,N,2,163,169,NOT APPLICABLE,
S0061,13,hypertension adverse events,N,1,207,208,hold,DM034
S0061,14,fatigue,N,2,210,211,NOT APPLICABLE,
S0061,15,dizziness,N,2,222,225,NOT APPLICABLE,
S0061,16,hypertension_variable,N,2,260,261,hold,DM034
S0061,17,acute renal failure adverse events,N,2,278,281,NOT APPLICABLE,
S0061,18,cardiac failure events,N,1,291,292,NOT APPLICABLE,
S0062,1,leukopenia,N,2,11,12,NOT APPLICABLE,
S0062,2,neutrophil_count_decreased,N,1,26,29,NOT APPLICABLE,
S0062,3,bone_pain,N,1,42,43,NOT APPLICABLE,
S0062,4,upper_respiratory_infections,N,2,70,71,NOT APPLICABLE,
S0062,5,fatigue,N,2,116,117,NOT APPLICABLE,
S0062,6,neutropenia,N,2,119,120,NOT APPLICABLE,
S0062,7,neuropathy-motor,N,2,121,122,hold,DM030
S0062,8,hypertension adverse events,N,2,150,151,hold,DM034
S0062,9,hypocalcemia,N,1,155,156,NOT APPLICABLE,
S0062,10,blurred_vision,N,2,179,180,NOT APPLICABLE,
S0062,11,back_pain,N,1,184,185,NOT APPLICABLE,
S0062,12,dehydration,N,1,190,197,NOT APPLICABLE,
S0062,13,decrease_in_appetite,N,2,254,255,NOT APPLICABLE,
S0062,14,rash/desquamation,N,1,266,267,NOT APPLICABLE,
S0062,15,pneumonia,Y,3,269,271,NOT APPLICABLE,
S0062,16,diarrhea,N,2,273,274,NOT APPLICABLE,
S0062,17,fever,N,2,291,292,NOT APPLICABLE,
S0062,18,pain_in_limb,N,2,309,310,NOT APPLICABLE,
S0062,19,sleeplessness,N,1,325,326,NOT APPLICABLE,
S0063,1,neutrophil_count_decreased,N,2,9,10,NOT APPLICABLE,
S0063,2,hypercholesterolemia,N,2,74,75,NOT APPLICABLE,
S0064,1,peripheral_nervous_system_diseases,N,1,96,97,NOT APPLICABLE,
S0064,2,bone_pain,N,1,98,99,NOT APPLICABLE,
S0064,3,hypertension_variable,N,2,123,124,hold,DM034
S0064,4,neuralgia,N,1,142,143,NOT APPLICABLE,
S0064,5,spasm,N,1,175,176,NOT APPLICABLE,
S0064,6,rash/desquamation,N,1,204,205,NOT APPLICABLE,
S0064,7,thrombocytopenia,N,1,206,207,hold,DM011
S0064,8,hypercholesterolemia,N,1,265,266,NOT APPLICABLE,
S0064,9,neutrophil_count_decreased,N,1,350,365,NOT APPLICABLE,
S0065,1,neutrophil_count_decreased,N,2,84,85,NOT APPLICABLE,
S0065,2,neuralgia,N,1,136,141,NOT APPLICABLE,
S0065,3,peripheral_nervous_system_diseases,N,1,139,141,NOT APPLICABLE,
S0065,4,rash/desquamation,N,1,147,148,NOT APPLICABLE,
S0065,5,thrombocytopenia,N,1,158,159,hold,DM011
S0065,6,hypercholesterolemia,N,2,163,169,NOT APPLICABLE,
S0065,7,hypertension_variable,N,1,335,337,hold,DM034
S0066,1,hyperglycemia,N,1,6,7,NOT APPLICABLE,
S0066,2,fatigue,N,2,8,9,NOT APPLICABLE,
S0066,3,neutropenia,N,1,20,21,NOT APPLICABLE,
S0066,4,pain_in_limb,N,1,21,22,NOT APPLICABLE,
S0066,5,anemia,N,2,24,29,NOT APPLICABLE,
S0066,6,"potassium,_serum-low_(hypokalemia)",N,2,27,29,NOT APPLICABLE,
S0066,7,diarrhea,N,2,32,33,NOT APPLICABLE,
S0066,8,weight_loss,N,1,32,33,NOT APPLICABLE,
S0066,9,abdominal_pain,N,2,32,33,NOT APPLICABLE,
S0066,10,hypokalemia,N,2,34,35,NOT APPLICABLE,
S0066,11,dyspepsia,N,1,40,41,NOT APPLICABLE,
S0066,12,nausea,N,2,43,44,NOT APPLICABLE,
S0066,13,vomiting,N,2,44,45,NOT APPLICABLE,
S0066,14,hypocalcemia,N,1,50,57,NOT APPLICABLE,
S0066,15,peripheral_edema,N,2,55,57,NOT APPLICABLE,
S0066,16,hypoalbuminemia,N,2,61,62,NOT APPLICABLE,
S0066,17,hypertension adverse events,N,1,61,62,NOT APPLICABLE,
S0067,1,anemia,N,2,8,9,NOT APPLICABLE,
S0067,2,edema:_limb,N,1,8,9,NOT APPLICABLE,
S0067,3,hemoglobin_normal_12_16_gm,N,1,14,15,NOT APPLICABLE,
S0067,4,peripheral_edema,N,2,22,29,NOT APPLICABLE,
S0067,5,spasm,N,1,53,57,NOT APPLICABLE,
S0067,6,thrombocytopenia,Y,3,56,58,hold,DM011
S0067,7,diarrhea,N,1,62,63,NOT APPLICABLE,
S0067,8,sleeplessness,N,2,65,66,NOT APPLICABLE,
S0067,9,pain_in_limb,N,1,79,85,NOT APPLICABLE,
S0067,10,dizziness,N,1,83,85,NOT APPLICABLE,
S0067,11,vomiting,N,2,85,86,NOT APPLICABLE,
S0067,12,hypertension adverse events,N,1,88,89,NOT APPLICABLE,
S0067,13,neuropathy-sensory,N,2,105,106,NOT APPLICABLE,
S0067,14,blurred_vision,N,2,105,106,NOT APPLICABLE,
S0067,15,hypocalcemia,N,1,110,113,NOT APPLICABLE,
S0068,1,asthenia,N,2,2,3,NOT APPLICABLE,
S0068,2,neuropathic_pain,N,1,27,29,NOT APPLICABLE,
S0068,3,hypertension,N,1,27,29,hold,DM034
S0068,4,diarrhea,N,2,45,46,NOT APPLICABLE,
S0068,5,fatigue,N,1,48,49,NOT APPLICABLE,
S0068,6,blurred_vision,N,1,75,76,NOT APPLICABLE,
S0068,7,hyperglycemia,N,2,140,141,NOT APPLICABLE,
S0068,8,influenza,N,2,176,177,NOT APPLICABLE,
S0068,9,hypertension_variable,N,1,189,190,hold,DM034
S0068,10,neuropathy-sensory,N,2,192,197,hold,DM030
S0068,11,neutropenia,N,1,201,202,NOT APPLICABLE,
S0068,12,upper_respiratory_infections,N,2,202,203,NOT APPLICABLE,
S0068,13,dizziness,N,1,203,204,NOT APPLICABLE,
S0068,14,hypertension adverse events,N,1,235,236,hold,DM034
S0068,15,neutrophil_count_decreased,N,2,236,237,NOT APPLICABLE,
S0068,16,sleeplessness,N,2,298,299,NOT APPLICABLE,
S0068,17,hypocalcemia,N,1,356,365,NOT APPLICABLE,
S0069,1,deep_vein_thrombosis,N,2,7,8,NOT APPLICABLE,
S0069,2,hypertension adverse events,N,1,20,21,hold,DM034
S0069,3,decrease_in_appetite,N,1,42,43,NOT APPLICABLE,
S0069,4,hypocalcemia,N,2,54,57,NOT APPLICABLE,
S0069,5,hypertension,N,2,57,58,hold,DM034
S0069,6,neutrophil_count_decreased,N,2,58,59,NOT APPLICABLE,
S0069,7,hypokalemia,N,2,61,62,NOT APPLICABLE,
S0069,8,respiratory_tract_infections,N,2,96,97,NOT APPLICABLE,
S0069,9,fever,N,2,103,104,NOT APPLICABLE,
S0069,10,headache,N,2,114,115,NOT APPLICABLE,
S0069,11,dizziness,N,2,122,123,NOT APPLICABLE,
S0069,12,non_cardiac_chest_pain,N,1,133,134,NOT APPLICABLE,
S0069,13,acute renal failure adverse events,N,2,157,158,NOT APPLICABLE,
S0069,14,hypertension_variable,N,2,173,174,hold,DM034
S0069,15,spasm,N,2,199,200,NOT APPLICABLE,
S0069,16,blurred_vision,N,1,269,270,NOT APPLICABLE,
S0069,17,neutropenia,N,1,321,322,NOT APPLICABLE,
S0070,1,neuropathy-sensory,N,1,1,2,NOT APPLICABLE,
S0070,2,sleeplessness,N,2,2,3,NOT APPLICABLE,
S0070,3,diarrhea,N,1,5,6,NOT APPLICABLE,
S0070,4,hypertension,N,2,6,7,hold,DM034
S0070,5,upper_respiratory_infections,N,1,7,8,NOT APPLICABLE,
S0070,6,fatigue,N,2,8,9,NOT APPLICABLE,
S0070,7,anemia,N,2,13,14,NOT APPLICABLE,
S0070,8,neutrophil_count_decreased,N,1,19,20,NOT APPLICABLE,
S0070,9,constipation,N,2,22,29,NOT APPLICABLE,
S0070,10,neutropenia,N,2,27,29,NOT APPLICABLE,
S0070,11,hypocalcemia,N,2,29,30,NOT APPLICABLE,
S0070,12,pain,N,1,29,30,NOT APPLICABLE,
S0070,13,hypertension adverse events,N,2,29,30,NOT APPLICABLE,
S0070,14,hypoalbuminemia,N,1,31,32,NOT APPLICABLE,
S0070,15,weight_loss,N,1,32,33,NOT APPLICABLE,
S0070,16,respiratory_tract_infections,N,2,33,34,NOT APPLICABLE,
S0070,17,pain_in_limb,N,2,36,37,NOT APPLICABLE,
S0070,18,hypertension,N,2,36,37,NOT APPLICABLE,
S0070,19,blurred_vision,N,2,37,38,NOT APPLICABLE,
S0070,20,neuropathic_pain,N,2,39,40,NOT APPLICABLE,
S0071,1,vomiting,N,1,43,44,NOT APPLICABLE,
S0071,2,fatigue,N,1,95,96,NOT APPLICABLE,
S0071,3,dizziness,N,2,125,126,NOT APPLICABLE,
S0071,4,neutropenia,N,1,129,130,NOT APPLICABLE,
S0071,5,hyperglycemia,N,1,139,141,NOT APPLICABLE,
S0071,6,pain,N,2,178,179,NOT APPLICABLE,
S0071,7,anemia,N,1,194,197,NOT APPLICABLE,
S0071,8,hypertension adverse events,N,1,281,282,hold,DM034
S0071,9,hypocalcemia,N,2,323,324,NOT APPLICABLE,
S0071,10,thrombocytopenia,Y,3,342,393,NOT APPLICABLE,
S0071,11,hypertension,N,2,363,365,NOT APPLICABLE,
S0072,1,pain,N,1,8,9,NOT APPLICABLE,
S0072,2,nausea,N,1,14,15,NOT APPLICABLE,
S0072,3,weight_loss,N,2,33,34,NOT APPLICABLE,
S0072,4,anemia,N,2,63,64,NOT APPLICABLE,
S0072,5,hypertension,N,1,107,113,hold,DM034
S0072,6,upper_respiratory_infections,N,2,140,141,NOT APPLICABLE,
S0072,7,vomiting,N,2,140,141,NOT APPLICABLE,
S0072,8,neutrophil_count_decreased,N,2,147,148,NOT APPLICABLE,
S0072,9,cataract,N,2,166,169,NOT APPLICABLE,
S0072,10,influenza,N,2,223,225,NOT APPLICABLE,
S0072,11,fever,Y,3,252,254,NOT APPLICABLE,
S0072,12,hypocalcemia,N,1,290,291,NOT APPLICABLE,
S0072,13,dizziness,N,1,299,300,NOT APPLICABLE,
S0072,14,gastroenteritis,N,2,364,365,NOT APPLICABLE,
S0073,1,rash/desquamation,N,2,38,39,NOT APPLICABLE,
S0073,2,neuropathy-sensory,N,1,66,67,NOT APPLICABLE,
S0073,3,leukopenia,N,2,86,87,NOT APPLICABLE,
S0073,4,neutrophil_count_decreased,N,2,88,89,NOT APPLICABLE,
S0073,5,hypertension_variable,N,2,114,115,hold,DM034
S0073,6,diarrhea,N,1,126,127,NOT APPLICABLE,
S0073,7,thrombocytopenia,N,1,190,197,hold,DM011
S0073,8,dyspepsia,N,2,224,225,NOT APPLICABLE,
S0073,9,hypercholesterolemia,N,1,242,243,NOT APPLICABLE,
S0073,10,influenza,N,2,258,259,NOT APPLICABLE,
S0073,11,vomiting,N,1,265,266,NOT APPLICABLE,
S0073,12,peripheral_nervous_system_diseases,N,2,276,281,NOT APPLICABLE,
S0074,1,gastroenteritis,N,2,41,42,NOT APPLICABLE,
S0074,2,hypertension,N,2,41,42,hold,DM034
S0074,3,nausea,N,2,73,74,NOT APPLICABLE,
S0074,4,pain_in_limb,N,2,79,85,NOT APPLICABLE,
S0074,5,back_pain,N,1,83,85,NOT APPLICABLE,
S0074,6,pain,N,1,108,113,NOT APPLICABLE,
S0074,7,neutrophil_count_decreased,N,2,170,171,NOT APPLICABLE,
S0074,8,sleeplessness,N,2,190,197,NOT APPLICABLE,
S0074,9,hypocalcemia,N,2,232,233,NOT APPLICABLE,
S0074,10,cardiac failure events,N,2,232,233,NOT APPLICABLE,
S0074,11,peripheral_edema,N,1,237,238,NOT APPLICABLE,
S0074,12,pneumonia,Y,3,241,243,NOT APPLICABLE,
S0074,13,neutropenia,N,2,321,322,NOT APPLICABLE,
S0074,14,nasopharyngitis,N,2,336,337,NOT APPLICABLE,
S0074,15,hypertension adverse events,N,1,338,365,NOT APPLICABLE,
S0075,1,neuropathy-sensory,N,1,3,4,NOT APPLICABLE,
S0075,2,hypertension_variable,N,1,9,10,hold,DM034
S0075,3,neutropenia,N,2,10,11,NOT APPLICABLE,
S0075,4,neuralgia,N,2,21,22,NOT APPLICABLE,
S0075,5,decrease_in_appetite,N,2,28,29,NOT APPLICABLE,
S0075,6,neuropathy:_sensory,N,1,62,63,NOT APPLICABLE,
S0075,7,hypertriglyceridemia,N,2,80,85,NOT APPLICABLE,
S0075,8,rash/desquamation,N,1,98,99,NOT APPLICABLE,
S0075,9,hypertension,N,1,129,130,hold,DM034
S0075,10,leukopenia,N,1,153,154,NOT APPLICABLE,
S0075,11,back_pain,N,2,169,170,NOT APPLICABLE,
S0075,12,hypercholesterolemia,N,2,217,218,NOT APPLICABLE,
S0075,13,bone_pain,N,2,250,253,NOT APPLICABLE,
S0075,14,influenza,N,1,258,259,NOT APPLICABLE,
S0075,15,thrombocytopenia,N,2,280,281,hold,DM011
S0075,16,neutrophil_count_decreased,N,2,317,318,NOT APPLICABLE,
S0075,17,constipation,N,1,336,337,NOT APPLICABLE,
S0075,18,peripheral_nervous_system_diseases,N,2,347,365,NOT APPLICABLE,
S0075,19,dizziness,N,2,348,365,NOT APPLICABLE,
S0075,20,fever,Y,3,353,393,NOT APPLICABLE,
S0075,21,peripheral_edema,N,2,358,365,NOT APPLICABLE,
S0076,1,hypertension adverse events,N,2,32,33,hold,DM034
S0076,2,pain_in_limb,N,2,37,38,NOT APPLICABLE,
S0076,3,diarrhea,N,1,96,97,NOT APPLICABLE,
S0076,4,anemia,N,2,96,97,NOT APPLICABLE,
S0076,5,upper_respiratory_infections,N,2,121,122,NOT APPLICABLE,
S0076,6,hypocalcemia,N,1,127,128,NOT APPLICABLE,
S0076,7,leukopenia,N,1,208,209,NOT APPLICABLE,
S0076,8,peripheral_edema,N,1,285,286,NOT APPLICABLE,
S0076,9,neutropenia,N,1,302,309,NOT APPLICABLE,
S0076,10,neutrophil_count_decreased,N,1,340,365,NOT APPLICABLE,
S0076,11,sleeplessness,N,2,345,365,NOT APPLICABLE,
S0076,12,weight_loss,N,2,357,365,NOT APPLICABLE,
S0076,13,pneumonia,Y,3,363,393,NOT APPLICABLE,
S0077,1,blurred_vision,N,1,14,15,NOT APPLICABLE,
S0077,2,pain_in_limb,N,1,16,17,NOT APPLICABLE,
S0077,3,hyponatremia,N,2,23,29,NOT APPLICABLE,
S0077,4,peripheral_nervous_system_diseases,N,1,29,30,NOT APPLICABLE,
S0077,5,anemia,N,1,39,40,NOT APPLICABLE,
S0077,6,pneumonia,Y,3,41,43,NOT APPLICABLE,
S0077,7,neuropathy-sensory,N,2,42,43,hold,DM030
S0077,8,neutrophil_count_decreased,N,2,53,57,NOT APPLICABLE,
S0077,9,vomiting,N,2,54,57,NOT APPLICABLE,
S0077,10,leukopenia,N,1,60,61,NOT APPLICABLE,
S0077,11,dizziness,N,2,70,71,NOT APPLICABLE,
S0077,12,fatigue,N,1,73,74,NOT APPLICABLE,
S0077,13,weight_loss,N,2,94,95,NOT APPLICABLE,
S0077,14,sleeplessness,N,2,105,106,NOT APPLICABLE,
S0077,15,upper_respiratory_infections,N,1,112,113,NOT APPLICABLE,
S0077,16,peripheral_edema,N,2,114,115,NOT APPLICABLE,
S0078,1,hypertension_variable,N,1,83,85,hold,DM034
S0078,2,thrombocytopenia,N,2,110,113,hold,DM011
S0078,3,neutrophil_count_decreased,N,1,221,225,NOT APPLICABLE,
S0078,4,neuralgia,N,2,224,225,NOT APPLICABLE,
S0078,5,rash/desquamation,N,2,275,281,NOT APPLICABLE,
S0078,6,hypercholesterolemia,N,2,290,291,NOT APPLICABLE,
S0078,7,decrease_in_appetite,N,2,293,294,NOT APPLICABLE,
S0079,1,influenza,N,1,24,29,NOT APPLICABLE,
S0079,2,hypertension_variable,N,1,48,49,hold,DM034
S0079,3,respiratory_tract_infections,Y,3,61,63,hold,DM028
S0079,4,thrombocytopenia,N,2,92,93,hold,DM011
S0079,5,hypercholesterolemia,N,2,117,118,NOT APPLICABLE,
S0079,6,neutrophil_count_decreased,N,2,190,197,NOT APPLICABLE,
S0079,7,hypertriglyceridemia,N,2,246,253,NOT APPLICABLE,
S0079,8,sensory_neuropathy,N,1,265,266,NOT APPLICABLE,
S0079,9,neuropathy-sensory,N,2,296,297,hold,DM030
S0079,10,rash/desquamation,N,2,311,312,NOT APPLICABLE,
S0079,11,decrease_in_appetite,N,1,312,313,NOT APPLICABLE,
S0079,12,neuralgia,N,1,341,365,NOT APPLICABLE,
S0080,1,peripheral_nervous_system_diseases,N,1,32,33,NOT APPLICABLE,
S0080,2,thrombocytopenia,N,2,62,63,hold,DM011
S0080,3,neutrophil_count_decreased,N,2,70,71,NOT APPLICABLE,
S0080,4,neuralgia,N,1,87,88,NOT APPLICABLE,
S0080,5,hypertension_variable,N,1,99,100,hold,DM034
S0080,6,rash/desquamation,N,2,115,116,NOT APPLICABLE,
S0080,7,hypercholesterolemia,N,2,168,169,NOT APPLICABLE,
S0081,1,vomiting,N,1,18,19,NOT APPLICABLE,
S0081,2,respiratory_tract_infections,N,1,20,21,NOT APPLICABLE,
S0081,3,hypoalbuminemia,N,1,22,29,NOT APPLICABLE,
S0081,4,fatigue,N,2,82,85,NOT APPLICABLE,
S0081,5,sleeplessness,N,1,96,97,NOT APPLICABLE,
S0081,6,blurred_vision,N,1,99,100,NOT APPLICABLE,
S0081,7,neutropenia,N,2,130,131,NOT APPLICABLE,
S0081,8,fever,N,1,132,133,NOT APPLICABLE,
S0081,9,diarrhea,N,2,138,141,NOT APPLICABLE,
S0081,10,dizziness,N,1,149,150,NOT APPLICABLE,
S0081,11,hypocalcemia,N,2,185,186,NOT APPLICABLE,
S0081,12,anemia,N,2,197,198,NOT APPLICABLE,
S0081,13,peripheral_edema,N,2,225,226,NOT APPLICABLE,
S0081,14,upper_respiratory_infections,Y,3,253,255,hold,DM028
S0081,15,hypertension adverse events,N,2,255,256,hold,DM034
S0081,16,decreased_platelet_count,N,2,291,292,hold,DM011
S0081,17,hypertension_variable,N,2,292,293,hold,DM034
S0081,18,thrombosis/thrombus/embolism,Y,3,298,300,NOT APPLICABLE,
S0081,19,upper_respiratory_infections,N,1,325,326,NOT APPLICABLE,
S0081,20,pain_in_limb,N,1,327,328,NOT APPLICABLE,
S0082,1,fever,N,2,8,9,NOT APPLICABLE,
S0082,2,hyperglycemia,N,2,11,12,NOT APPLICABLE,
S0082,3,hypertension adverse events,N,1,22,29,hold,DM034
S0082,4,neutropenia,N,2,52,57,NOT APPLICABLE,
S0082,5,dizziness,N,2,72,73,NOT APPLICABLE,
S0082,6,pneumonia,N,1,98,99,NOT APPLICABLE,
S0082,7,nasopharyngitis,N,1,115,116,NOT APPLICABLE,
S0082,8,fatigue,N,2,148,149,NOT APPLICABLE,
S0082,9,acute renal failure adverse events,N,2,199,200,NOT APPLICABLE,
S0082,10,sleeplessness,N,1,205,206,NOT APPLICABLE,
S0082,11,diarrhea,N,2,208,209,NOT APPLICABLE,
S0082,12,hypocalcemia,N,2,262,263,NOT APPLICABLE,
S0082,13,respiratory_tract_infections,N,1,283,284,NOT APPLICABLE,
S0082,14,nausea,N,2,298,299,NOT APPLICABLE,
S0082,15,hypokalemia,N,1,315,316,NOT APPLICABLE,
S0082,16,neutrophil_count_decreased,N,2,323,324,NOT APPLICABLE,
S0082,17,coughing,N,2,335,337,NOT APPLICABLE,
S0083,1,neuropathic_pain,N,2,2,3,NOT APPLICABLE,
S0083,2,hypertension_variable,N,1,3,4,hold,DM034
S0083,3,dry_skin,N,1,5,6,NOT APPLICABLE,
S0083,4,leukopenia,N,2,11,12,NOT APPLICABLE,
S0083,5,asthenia,N,1,11,12,NOT APPLICABLE,
S0083,6,respiratory_tract_infections,Y,3,11,13,hold,DM028
S0083,7,diarrhea,N,2,13,14,NOT APPLICABLE,
S0083,8,sleeplessness,N,2,13,14,NOT APPLICABLE,
S0083,9,hypercholesterolemia,N,2,13,14,NOT APPLICABLE,
S0083,10,neuropathy-sensory,N,1,14,15,NOT APPLICABLE,
S0083,11,constipation,N,1,15,16,NOT APPLICABLE,
S0083,12,back_pain,N,1,15,16,NOT APPLICABLE,
S0083,13,rash/desquamation,N,2,15,16,NOT APPLICABLE,
S0083,14,thrombocytopenia,N,1,16,17,NOT APPLICABLE,
S0083,15,anemia,N,1,17,18,NOT APPLICABLE,
S0083,16,hyperglycemia,N,1,17,18,NOT APPLICABLE,
S0083,17,anorexia,N,1,17,18,NOT APPLICABLE,
S0083,18,sensory_neuropathy,N,1,18,19,NOT APPLICABLE,
S0083,19,spasm,N,1,18,19,NOT APPLICABLE,
S0083,20,diarrhea,Y,3,21,29,NOT APPLICABLE,
S0083,21,pain_in_limb,N,1,22,29,NOT APPLICABLE,
S0083,22,pain,N,1,22,29,NOT APPLICABLE,
S0083,23,peripheral_nervous_system_diseases,N,2,24,29,NOT APPLICABLE,
S0083,24,lower_respiratory_tract_infection,Y,3,24,30,NOT APPLICABLE,
S0083,25,hypertension,N,2,24,29,NOT APPLICABLE,
S0083,26,urinary_tract_infection,Y,3,25,30,NOT APPLICABLE,
S0083,27,neutrophil_count_decreased,N,1,28,29,NOT APPLICABLE,
S0083,28,decrease_in_appetite,N,1,30,31,NOT APPLICABLE,
S0083,29,accidental_overdose,Y,3,30,32,NOT APPLICABLE,
S0083,30,dizziness,N,2,31,32,NOT APPLICABLE,
S0083,31,cataract,N,2,31,32,NOT APPLICABLE,
S0083,32,dyspepsia,N,1,34,35,NOT APPLICABLE,
S0083,33,bone_pain,N,1,34,35,NOT APPLICABLE,
S0083,34,vomiting,N,1,35,36,NOT APPLICABLE,
S0083,35,rash_erythematous_macules_or_papules,N,1,35,36,NOT APPLICABLE,
S0083,36,respiratory_tract_infections,N,1,37,38,NOT APPLICABLE,
S0083,37,peripheral_edema,N,2,40,41,NOT APPLICABLE,
S0083,38,hyponatremia,N,2,40,41,NOT APPLICABLE,
S0083,39,dyspnea,N,1,41,42,NOT APPLICABLE,
S0083,40,neuralgia,N,2,42,43,NOT APPLICABLE,
S0083,41,non_cardiac_chest_pain,N,2,42,43,NOT APPLICABLE,
S0083,42,influenza,N,1,45,46,NOT APPLICABLE,
S0084,1,sensory_neuropathy,N,1,53,57,NOT APPLICABLE,
S0084,2,thrombocytopenia,N,2,66,67,hold,DM011
S0084,3,peripheral_nervous_system_diseases,N,1,67,68,NOT APPLICABLE,
S0084,4,non_cardiac_chest_pain,N,2,67,68,NOT APPLICABLE,
S0084,5,dyspepsia,N,1,72,73,NOT APPLICABLE,
S0084,6,hypertension_variable,N,2,75,76,hold,DM034
S0084,7,neutrophil_count_decreased,N,1,102,103,NOT APPLICABLE,
S0084,8,hypercholesterolemia,N,1,151,152,NOT APPLICABLE,
S0084,9,hypertension,N,1,169,170,hold,DM034
S0084,10,neuralgia,N,1,227,228,NOT APPLICABLE,
S0084,11,bone_pain,N,1,231,232,NOT APPLICABLE,
S0084,12,leukopenia,N,2,256,257,NOT APPLICABLE,
S0084,13,rash/desquamation,N,1,261,262,NOT APPLICABLE,
S0085,1,dizziness,N,1,5,6,NOT APPLICABLE,
S0085,2,acute renal failure,N,2,11,12,NOT APPLICABLE,
S0085,3,weight_loss,N,1,17,18,NOT APPLICABLE,
S0085,4,pain_in_limb,N,1,20,21,NOT APPLICABLE,
S0085,5,hypertension adverse events,N,1,43,44,hold,DM034
S0085,6,cataract,N,1,53,57,NOT APPLICABLE,
S0085,7,hyperglycemia,N,2,57,58,NOT APPLICABLE,
S0085,8,fatigue,N,2,59,60,NOT APPLICABLE,
S0085,9,neuropathy-sensory,N,2,86,87,hold,DM030
S0085,10,anemia,N,1,95,96,NOT APPLICABLE,
S0085,11,hypocalcemia,N,2,136,141,NOT APPLICABLE,
S0085,12,decreased_platelet_count,N,1,163,169,hold,DM011
S0085,13,hypertension,N,1,178,179,hold,DM034
S0085,14,hypokalemia,N,2,244,245,NOT APPLICABLE,
S0085,15,respiratory_tract_infections,N,2,245,246,NOT APPLICABLE,
S0085,16,vomiting,N,2,272,273,NOT APPLICABLE,
S0085,17,peripheral_edema,N,2,292,293,NOT APPLICABLE,
S0085,18,pain,N,2,311,312,NOT APPLICABLE,
S0086,1,neutrophil_count_decreased,N,1,36,37,NOT APPLICABLE,
S0086,2,rash/desquamation,N,1,50,57,NOT APPLICABLE,
S0086,3,hypertension_variable,N,1,126,127,hold,DM034
S0086,4,neuralgia,N,1,204,205,NOT APPLICABLE,
S0086,5,hypercholesterolemia,N,2,205,206,NOT APPLICABLE,
S0087,1,neutropenia,N,1,22,29,NOT APPLICABLE,
S0087,2,decrease_in_appetite,N,2,27,29,NOT APPLICABLE,
S0087,3,anemia,N,2,36,37,NOT APPLICABLE,
S0087,4,upper_respiratory_infections,N,2,46,47,NOT APPLICABLE,
S0087,5,peripheral_edema,N,2,51,57,NOT APPLICABLE,
S0087,6,pain,N,2,57,58,NOT APPLICABLE,
S0087,7,hypoalbuminemia,N,1,81,85,NOT APPLICABLE,
S0087,8,fatigue,N,1,92,93,NOT APPLICABLE,
S0087,9,diarrhea,N,2,96,97,NOT APPLICABLE,
S0087,10,decreased_platelet_count,N,2,103,104,hold,DM011
S0087,11,neuropathy-sensory,N,2,119,120,hold,DM030
S0087,12,kidney_failure,Y,3,125,127,NOT APPLICABLE,
S0087,13,hypokalemia,N,1,157,158,NOT APPLICABLE,
S0087,14,dizziness,N,1,163,169,NOT APPLICABLE,
S0087,15,hypertension adverse events,N,2,169,170,hold,DM034
S0087,16,hypertension,N,2,190,197,hold,DM034
S0087,17,leukopenia,N,1,211,212,NOT APPLICABLE,
S0087,18,sleeplessness,N,1,216,217,NOT APPLICABLE,
S0087,19,spasm,N,2,231,232,NOT APPLICABLE,
S0088,1,hypercholesterolemia,N,1,32,33,NOT APPLICABLE,
S0088,2,constipation,N,2,38,39,NOT APPLICABLE,
S0088,3,sensory_neuropathy,N,2,47,48,hold,DM030
S0088,4,hypertriglyceridemia,N,1,66,67,NOT APPLICABLE,
S0088,5,hypertension_variable,N,2,68,69,hold,DM034
S0088,6,peripheral_edema,N,1,68,69,NOT APPLICABLE,
S0088,7,thrombocytopenia,N,2,75,76,hold,DM011
S0088,8,decrease_in_appetite,N,2,77,78,NOT APPLICABLE,
S0088,9,dyspepsia,N,1,184,185,NOT APPLICABLE,
S0088,10,dizziness,N,2,200,201,NOT APPLICABLE,
S0088,11,neuralgia,N,2,200,201,NOT APPLICABLE,
S0088,12,hypertension,N,1,213,214,hold,DM034
S0088,13,pain,N,1,251,253,NOT APPLICABLE,
S0088,14,peripheral_nervous_system_diseases,N,1,285,286,NOT APPLICABLE,
S0088,15,respiratory_tract_infections,Y,3,289,291,hold,DM028
S0088,16,anemia,N,1,290,291,NOT APPLICABLE,
S0088,17,asthenia,N,2,321,322,NOT APPLICABLE,
S0088,18,rash/desquamation,N,1,330,337,NOT APPLICABLE,
S0088,19,neutrophil_count_decreased,N,1,331,337,NOT APPLICABLE,
S0088,20,leukopenia,N,1,356,365,NOT APPLICABLE,
S0089,1,asthenia,N,2,20,21,NOT APPLICABLE,
S0089,2,gastroenteritis,N,1,25,29,NOT APPLICABLE,
S0089,3,rash/desquamation,N,2,121,122,NOT APPLICABLE,
S0089,4,hypertension adverse events,N,2,128,129,hold,DM034
S0089,5,influenza,N,1,141,142,NOT APPLICABLE,
S0089,6,peripheral_edema,N,2,144,145,NOT APPLICABLE,
S0089,7,blurred_vision,N,1,144,145,NOT APPLICABLE,
S0089,8,nausea,N,2,167,169,NOT APPLICABLE,
S0089,9,hypocalcemia,N,1,184,185,NOT APPLICABLE,
S0089,10,hypertension,N,2,187,188,hold,DM034
S0089,11,leukopenia,N,2,207,208,NOT APPLICABLE,
S0089,12,hypertension,N,1,239,240,hold,DM034
S0089,13,neuropathic_pain,N,1,243,244,NOT APPLICABLE,
S0089,14,diarrhea,N,2,260,261,NOT APPLICABLE,
S0089,15,decrease_in_appetite,N,1,261,262,NOT APPLICABLE,
S0089,16,sleeplessness,N,2,336,337,NOT APPLICABLE,
S0089,17,hypokalemia,N,1,345,365,NOT APPLICABLE,
S0089,18,pain_in_limb,N,1,347,365,NOT APPLICABLE,
S0090,1,dizziness,N,1,17,18,NOT APPLICABLE,
S0090,2,hypokalemia,N,2,61,62,NOT APPLICABLE,
S0090,3,blurred_vision,N,1,86,87,NOT APPLICABLE,
S0090,4,hypocalcemia,N,1,91,92,NOT APPLICABLE,
S0090,5,neuropathy-sensory,N,2,109,113,hold,DM030
S0090,6,hypertension_variable,N,1,190,197,hold,DM034
S0090,7,fatigue,N,1,207,208,NOT APPLICABLE,
S0090,8,neutropenia,N,2,251,253,NOT APPLICABLE,
S0090,9,nausea,N,2,264,265,NOT APPLICABLE,
S0090,10,upper_respiratory_infections,N,2,270,271,NOT APPLICABLE,
S0090,11,back_pain,N,1,270,271,NOT APPLICABLE,
S0090,12,neutrophil_count_decreased,N,1,271,272,NOT APPLICABLE,
S0090,13,dry_skin,N,2,318,319,NOT APPLICABLE,
S0090,14,hypertension adverse events,N,1,353,365,NOT APPLICABLE,
S0090,15,cataract,N,2,362,365,NOT APPLICABLE,
S0091,1,hypocalcemia,N,2,3,4,NOT APPLICABLE,
S0091,2,dizziness,N,1,21,22,NOT APPLICABLE,
S0091,3,neuropathy-motor,N,1,43,44,NOT APPLICABLE,
S0091,4,gastroenteritis,N,1,50,57,NOT APPLICABLE,
S0091,5,neutrophil_count_decreased,N,1,53,57,NOT APPLICABLE,
S0091,6,diarrhea,N,1,97,98,NOT APPLICABLE,
S0091,7,pain_in_limb,N,2,148,149,NOT APPLICABLE,
S0091,8,acute renal failure adverse events,N,2,178,179,NOT APPLICABLE,
S0091,9,nausea,N,2,203,204,NOT APPLICABLE,
S0091,10,pain,N,1,215,216,NOT APPLICABLE,
S0091,11,hypertension adverse events,N,2,274,281,hold,DM034
S0091,12,dehydration,N,1,280,281,NOT APPLICABLE,
S0091,13,sleeplessness,N,1,333,337,NOT APPLICABLE,
S0092,1,hypercholesterolemia,N,1,95,96,NOT APPLICABLE,
S0092,2,hypertension_variable,N,2,143,144,hold,DM034
S0092,3,neuralgia,N,2,176,177,NOT APPLICABLE,
S0092,4,neutrophil_count_decreased,N,1,224,225,NOT APPLICABLE,
S0092,5,rash/desquamation,N,1,336,337,NOT APPLICABLE,
S0092,6,thrombocytopenia,N,2,338,365,NOT APPLICABLE,
S0093,1,asthenia,N,2,1,2,NOT APPLICABLE,
S0093,2,hypocalcemia,N,1,2,3,NOT APPLICABLE,
S0093,3,sleeplessness,N,1,7,8,NOT APPLICABLE,
S0093,4,diarrhea,N,1,19,20,NOT APPLICABLE,
S0093,5,rash/desquamation,N,1,19,20,NOT APPLICABLE,
S0093,6,dizziness,N,1,20,21,NOT APPLICABLE,
S0093,7,deep_vein_thrombosis,N,1,24,29,NOT APPLICABLE,
S0093,8,hypokalemia,N,2,26,29,NOT APPLICABLE,
S0093,9,spasm,N,1,35,36,NOT APPLICABLE,
S0093,10,vomiting,N,1,44,45,NOT APPLICABLE,
S0093,11,fatigue,N,1,50,57,NOT APPLICABLE,
S0093,12,anemia,N,2,53,57,NOT APPLICABLE,
S0093,13,leukopenia,N,1,53,57,NOT APPLICABLE,
S0093,14,arthralgia,N,1,59,60,NOT APPLICABLE,
S0094,1,hypertension adverse events,N,2,7,8,hold,DM034
S0094,2,peripheral_nervous_system_diseases,N,2,8,9,NOT APPLICABLE,
S0094,3,hypertension,N,2,10,11,hold,DM034
S0094,4,hypocalcemia,N,2,15,16,NOT APPLICABLE,
S0094,5,sleeplessness,N,2,16,17,NOT APPLICABLE,
S0094,6,leukopenia,N,1,17,18,NOT APPLICABLE,
S0094,7,hypoalbuminemia,N,1,17,18,NOT APPLICABLE,
S0094,8,fatigue,N,1,26,29,NOT APPLICABLE,
S0094,9,hyperglycemia,N,1,28,29,NOT APPLICABLE,
S0094,10,pain_in_limb,N,1,29,30,NOT APPLICABLE,
S0094,11,peripheral_edema,N,1,32,33,NOT APPLICABLE,
S0094,12,hypertension adverse events,N,2,33,34,hold,DM034
S0094,13,diarrhea,N,2,42,43,NOT APPLICABLE,
S0094,14,neutrophil_count_decreased,N,1,47,48,NOT APPLICABLE,
S0094,15,anemia,N,1,53,57,NOT APPLICABLE,
S0094,16,blurred_vision,N,2,67,68,NOT APPLICABLE,
S0094,17,decrease_in_appetite,N,2,70,71,NOT APPLICABLE,
S0094,18,constipation,N,1,73,74,NOT APPLICABLE,
S0095,1,neutropenia,N,1,5,6,NOT APPLICABLE,
S0095,2,hypertension_variable,N,2,13,14,hold,DM034
S0095,3,upper_respiratory_infections,N,2,14,15,NOT APPLICABLE,
S0095,4,neuropathy-motor,N,2,16,17,hold,DM030
S0095,5,hypertension,N,2,21,22,hold,DM034
S0095,6,spasm,N,1,22,29,NOT APPLICABLE,
S0095,7,hyperglycemia,N,1,48,49,NOT APPLICABLE,
S0095,8,acute renal failure,N,1,52,57,NOT APPLICABLE,
S0095,9,hypocalcemia,N,1,65,66,NOT APPLICABLE,
S0095,10,decrease_in_appetite,N,2,67,68,NOT APPLICABLE,
S0095,11,blurred_vision,N,1,69,70,NOT APPLICABLE,
S0095,12,nausea,N,1,73,74,NOT APPLICABLE,
S0095,13,dizziness,N,1,80,85,NOT APPLICABLE,
S0095,14,fatigue,N,2,98,99,NOT APPLICABLE,
S0095,15,sleeplessness,N,1,107,113,NOT APPLICABLE,
S0095,16,anemia,N,2,132,133,NOT APPLICABLE,
S0095,17,asthenia,N,1,149,150,NOT APPLICABLE,
S0096,1,hypertriglyceridemia,N,1,26,29,NOT APPLICABLE,
S0096,2,sepsis,Y,3,50,58,NOT APPLICABLE,
S0096,3,neuralgia,N,2,53,57,NOT APPLICABLE,
S0096,4,neutrophil_count_decreased,N,1,74,75,NOT APPLICABLE,
S0096,5,rash/desquamation,N,2,166,169,NOT APPLICABLE,
S0096,6,nasopharyngitis,N,1,176,177,NOT APPLICABLE,
S0096,7,peripheral_edema,N,2,191,197,NOT APPLICABLE,
S0096,8,hypertension_variable,N,1,211,212,hold,DM034
S0096,9,spasm,N,2,224,225,NOT APPLICABLE,
S0096,10,peripheral_nervous_system_diseases,N,2,232,233,NOT APPLICABLE,
S0096,11,hypercholesterolemia,N,1,238,239,NOT APPLICABLE,
S0096,12,neuropathy-sensory,N,2,249,253,hold,DM030
S0096,13,bone_pain,N,1,269,270,NOT APPLICABLE,
S0096,14,sleeplessness,N,1,270,271,NOT APPLICABLE,
S0096,15,constipation,N,1,272,273,NOT APPLICABLE,
S0096,16,back_pain,N,1,280,281,NOT APPLICABLE,
S0096,17,sensory_neuropathy,N,2,314,315,hold,DM030
S0096,18,pain_in_limb,N,2,323,324,NOT APPLICABLE,
S0096,19,decrease_in_appetite,N,2,330,337,NOT APPLICABLE,
S0096,20,thrombocytopenia,N,2,350,365,NOT APPLICABLE,
S0096,21,diarrhea,N,1,354,365,NOT APPLICABLE,
S0096,22,lower_respiratory_tract_infection,Y,3,363,393,NOT APPLICABLE,
S0097,1,thrombocytopenia,N,1,15,16,hold,DM011
S0097,2,headache,N,2,18,19,NOT APPLICABLE,
S0097,3,hypertension_variable,N,2,45,46,hold,DM034
S0097,4,neutrophil_count_decreased,N,2,52,57,NOT APPLICABLE,
S0097,5,hypertriglyceridemia,N,2,80,85,NOT APPLICABLE,
S0097,6,hypertension,N,1,84,85,hold,DM034
S0097,7,dyspepsia,N,2,117,118,NOT APPLICABLE,
S0097,8,bone_pain,N,2,117,118,NOT APPLICABLE,
S0097,9,neuralgia,N,1,125,126,NOT APPLICABLE,
S0097,10,hypertension,N,2,175,176,hold,DM034
S0097,11,rash/desquamation,N,1,176,177,NOT APPLICABLE,
S0097,12,back_pain,N,1,189,190,NOT APPLICABLE,
S0097,13,sensory_neuropathy,N,1,218,225,NOT APPLICABLE,
S0097,14,decrease_in_appetite,N,2,289,290,NOT APPLICABLE,
S0097,15,hemoglobin_normal_12_16_gm,N,2,333,337,NOT APPLICABLE,
S0097,16,peripheral_nervous_system_diseases,N,2,335,337,NOT APPLICABLE,
S0097,17,"potassium,_serum-low_(hypokalemia)",N,1,339,365,NOT APPLICABLE,
S0097,18,hypercholesterolemia,N,1,365,393,NOT APPLICABLE,
S0098,1,upper_respiratory_infections,N,1,7,8,NOT APPLICABLE,
S0098,2,anemia,N,2,12,13,NOT APPLICABLE,
S0098,3,neutropenia,N,2,18,19,NOT APPLICABLE,
S0098,4,myalgia,N,2,25,29,NOT APPLICABLE,
S0098,5,fever,N,2,38,39,NOT APPLICABLE,
S0098,6,dry_skin,N,1,39,40,NOT APPLICABLE,
S0098,7,diarrhea,N,1,59,60,NOT APPLICABLE,
S0098,8,sleeplessness,N,2,64,65,NOT APPLICABLE,
S0098,9,hypocalcemia,N,2,64,65,NOT APPLICABLE,
S0098,10,pain,N,2,82,85,NOT APPLICABLE,
S0098,11,nausea,N,2,90,91,NOT APPLICABLE,
S0098,12,hyperglycemia,N,2,91,92,NOT APPLICABLE,
S0098,13,pain_in_limb,N,1,96,97,NOT APPLICABLE,
S0098,14,atrial_fibrillation,Y,3,105,113,NOT APPLICABLE,
S0098,15,hypertension,N,2,111,113,hold,DM034
S0098,16,thrombocytopenia,Y,3,112,114,hold,DM011
S0098,17,acute renal failure,N,1,114,115,NOT APPLICABLE,
S0098,18,vomiting,N,1,126,127,NOT APPLICABLE,
S0099,1,neutrophil_count_decreased,N,1,2,3,NOT APPLICABLE,
S0099,2,spasm,N,1,36,37,NOT APPLICABLE,
S0099,3,peripheral_edema,N,1,50,57,NOT APPLICABLE,
S0099,4,neutropenia,N,1,63,64,NOT APPLICABLE,
S0099,5,decreased_platelet_count,N,1,119,120,hold,DM011
S0099,6,hypertriglyceridemia,N,2,122,123,NOT APPLICABLE,
S0099,7,diarrhea,N,1,124,125,NOT APPLICABLE,
S0099,8,hypocalcemia,N,2,132,133,NOT APPLICABLE,
S0099,9,hyperglycemia,N,1,164,169,NOT APPLICABLE,
S0099,10,vomiting,N,1,197,198,NOT APPLICABLE,
S0099,11,hypertension adverse events,N,2,217,218,hold,DM034
S0099,12,sleeplessness,N,2,330,337,NOT APPLICABLE,
S0099,13,hypoalbuminemia,N,1,332,337,NOT APPLICABLE,
S0099,14,respiratory_tract_infections,N,2,341,365,NOT APPLICABLE,
S0100,1,hypercholesterolemia,N,2,6,7,NOT APPLICABLE,
S0100,2,decrease_in_appetite,N,1,24,29,NOT APPLICABLE,
S0100,3,neuropathy-sensory,N,1,40,41,NOT APPLICABLE,
S0100,4,vomiting,N,2,46,47,NOT APPLICABLE,
S0100,5,peripheral_nervous_system_diseases,N,1,62,63,NOT APPLICABLE,
S0100,6,neutrophil_count_decreased,N,1,85,86,NOT APPLICABLE,
S0100,7,hypertension_variable,N,1,90,91,hold,DM034
S0100,8,neuralgia,N,1,127,128,NOT APPLICABLE,
S0100,9,gastroenteritis,N,2,140,141,NOT APPLICABLE,
S0100,10,sensory_neuropathy,N,2,150,151,hold,DM030
S0100,11,bone_pain,N,2,216,217,NOT APPLICABLE,
S0100,12,respiratory_tract_infections,Y,3,229,231,hold,DM028
S0100,13,rash/desquamation,N,1,236,237,NOT APPLICABLE,
S0100,14,thrombocytopenia,N,1,258,259,hold,DM011
S0100,15,peripheral_edema,N,2,327,328,NOT APPLICABLE,
S0101,1,anemia,N,2,6,7,NOT APPLICABLE,
S0101,2,spasm,N,2,30,31,NOT APPLICABLE,
S0101,3,upper_respiratory_infections,N,1,39,40,NOT APPLICABLE,
S0101,4,blurred_vision,N,2,84,85,NOT APPLICABLE,
S0101,5,dizziness,N,1,102,103,NOT APPLICABLE,
S0101,6,decreased_platelet_count,N,2,119,120,hold,DM011
S0101,7,dyspnea,N,2,120,121,hold,DM032
S0101,8,pain_in_limb,N,1,128,129,NOT APPLICABLE,
S0101,9,thrombocytopenia,Y,3,198,200,hold,DM011
S0101,10,cardiac failure events,N,1,217,218,NOT APPLICABLE,
S0101,11,neuropathy-sensory,N,1,218,225,NOT APPLICABLE,
S0101,12,diarrhea,N,2,238,239,NOT APPLICABLE,
S0101,13,hypokalemia,N,2,242,243,NOT APPLICABLE,
S0101,14,nasopharyngitis,N,1,333,337,NOT APPLICABLE,
S0101,15,hypocalcemia,N,1,338,365,NOT APPLICABLE,
S0102,1,constipation,N,2,4,5,NOT APPLICABLE,
S0102,2,blurred_vision,N,2,19,20,NOT APPLICABLE,
S0102,3,acute renal failure,N,2,20,21,NOT APPLICABLE,
S0102,4,sleeplessness,N,2,23,29,NOT APPLICABLE,
S0102,5,hyperglycemia,N,1,23,29,NOT APPLICABLE,
S0102,6,hypoalbuminemia,N,2,27,29,NOT APPLICABLE,
S0102,7,hypocalcemia,N,2,33,34,NOT APPLICABLE,
S0102,8,decreased_platelet_count,N,1,38,39,hold,DM011
S0102,9,neutropenia,N,1,43,44,NOT APPLICABLE,
S0102,10,fatigue,N,1,50,57,NOT APPLICABLE,
S0102,11,fever,N,1,52,57,NOT APPLICABLE,
S0102,12,abdominal_pain,N,2,53,57,NOT APPLICABLE,
S0102,13,respiratory_tract_infections,N,1,56,57,NOT APPLICABLE,
S0102,14,neuropathy-sensory,N,2,57,58,NOT APPLICABLE,
S0102,15,cataract,N,1,59,60,NOT APPLICABLE,
S0102,16,anemia,N,1,63,64,NOT APPLICABLE,
S0102,17,dizziness,N,1,65,66,NOT APPLICABLE,
S0102,18,hemoglobin_normal_12_16_gm,N,1,71,72,NOT APPLICABLE,
S0102,19,diarrhea,N,2,77,78,NOT APPLICABLE,
S0103,1,rash/desquamation,N,2,41,42,NOT APPLICABLE,
S0103,2,hypercholesterolemia,N,1,66,67,NOT APPLICABLE,
S0103,3,dyspepsia,N,1,90,91,NOT APPLICABLE,
S0103,4,peripheral_nervous_system_diseases,N,1,91,92,NOT APPLICABLE,
S0103,5,neutrophil_count_decreased,N,2,125,126,NOT APPLICABLE,
S0103,6,decrease_in_appetite,N,1,173,174,NOT APPLICABLE,
S0103,7,sensory_neuropathy,N,1,176,177,NOT APPLICABLE,
S0103,8,hypertension_variable,N,1,215,216,hold,DM034
S0103,9,thrombocytopenia,N,2,221,225,hold,DM011
S0103,10,neuralgia,N,2,306,309,NOT APPLICABLE,
S0104,1,fatigue,N,1,34,35,NOT APPLICABLE,
S0104,2,weight_loss,N,2,46,47,NOT APPLICABLE,
S0104,3,hypocalcemia,N,1,60,61,NOT APPLICABLE,
S0104,4,hypertension,N,2,93,94,hold,DM034
S0104,5,acute renal failure adverse events,N,1,98,99,NOT APPLICABLE,
S0104,6,thrombocytopenia,N,1,124,125,hold,DM011
S0104,7,anemia,N,1,146,147,NOT APPLICABLE,
S0104,8,blurred_vision,N,2,186,187,NOT APPLICABLE,
S0104,9,upper_respiratory_infections,N,1,207,208,NOT APPLICABLE,
S0104,10,vomiting,N,1,231,232,NOT APPLICABLE,
S0104,11,pain_in_limb,N,1,263,264,NOT APPLICABLE,
S0104,12,neutropenia,N,1,269,270,NOT APPLICABLE,
S0104,13,spasm,N,1,292,293,NOT APPLICABLE,
S0104,14,pneumonia,Y,3,303,310,NOT APPLICABLE,
S0104,15,neuropathic_pain,N,2,318,319,NOT APPLICABLE,
S0104,16,sleeplessness,N,1,326,327,NOT APPLICABLE,
S0104,17,decreased_platelet_count,N,1,336,337,hold,DM011
S0104,18,hypertension adverse events,N,1,342,365,NOT APPLICABLE,
S0105,1,acute renal failure adverse events,N,1,39,40,NOT APPLICABLE,
S0105,2,hypercholesterolemia,N,1,46,47,NOT APPLICABLE,
S0105,3,vomiting,N,2,51,57,NOT APPLICABLE,
S0105,4,neutrophil_count_decreased,N,1,77,78,NOT APPLICABLE,
S0105,5,dyspepsia,N,2,87,88,NOT APPLICABLE,
S0105,6,pain,N,2,105,106,NOT APPLICABLE,
S0105,7,dizziness,N,1,146,147,NOT APPLICABLE,
S0105,8,decrease_in_appetite,N,1,182,183,NOT APPLICABLE,
S0105,9,back_pain,N,2,217,218,NOT APPLICABLE,
S0105,10,neuralgia,N,1,234,235,NOT APPLICABLE,
S0105,11,rash/desquamation,N,2,244,245,NOT APPLICABLE,
S0105,12,hypertension_variable,N,2,245,246,hold,DM034
S0105,13,thrombocytopenia,N,2,256,257,hold,DM011
S0105,14,anorexia,N,2,277,281,NOT APPLICABLE,
S0105,15,pain_in_limb,N,2,280,281,NOT APPLICABLE,
S0105,16,influenza,N,2,305,309,NOT APPLICABLE,
S0105,17,sensory_neuropathy,N,1,306,309,NOT APPLICABLE,
S0105,18,dyspnea,N,1,311,312,hold,DM032
S0105,19,spasm,N,1,323,324,NOT APPLICABLE,
S0105,20,hyperglycemia,N,1,323,324,NOT APPLICABLE,
S0105,21,hypoalbuminemia,N,2,325,326,NOT APPLICABLE,
S0105,22,thrombosis/thrombus/embolism,Y,3,334,365,NOT APPLICABLE,
S0105,23,peripheral_nervous_system_diseases,N,1,335,337,NOT APPLICABLE,
S0105,24,sepsis,Y,3,341,393,NOT APPLICABLE,
S0106,1,influenza,N,2,8,9,NOT APPLICABLE,
S0106,2,sleeplessness,N,1,11,12,NOT APPLICABLE,
S0106,3,hypoalbuminemia,N,2,22,29,NOT APPLICABLE,
S0106,4,neuropathic_pain,N,1,56,57,NOT APPLICABLE,
S0106,5,dizziness,N,2,85,86,NOT APPLICABLE,
S0106,6,fatigue,N,2,86,87,NOT APPLICABLE,
S0106,7,hypocalcemia,N,2,139,141,NOT APPLICABLE,
S0106,8,hyperglycemia,N,2,158,159,NOT APPLICABLE,
S0106,9,hypertension,N,2,162,169,hold,DM034
S0106,10,neuropathy-motor,N,2,173,174,hold,DM030
S0106,11,thrombocytopenia,Y,3,194,198,hold,DM011
S0106,12,diarrhea,N,2,243,244,NOT APPLICABLE,
S0106,13,decreased_platelet_count,N,2,246,253,hold,DM011
S0106,14,weight_loss,N,2,248,253,NOT APPLICABLE,
S0106,15,nausea,N,2,275,281,NOT APPLICABLE,
S0106,16,hypokalemia,N,1,342,365,NOT APPLICABLE,
S0106,17,vomiting,N,1,352,365,NOT APPLICABLE,
S0106,18,neutropenia,N,1,362,365,NOT APPLICABLE,
S0106,19,gastroenteritis,N,2,366,393,NOT APPLICABLE,
S0107,1,diarrhea,N,2,18,19,NOT APPLICABLE,
S0107,2,abdominal_pain,N,1,51,57,NOT APPLICABLE,
S0107,3,dehydration,N,2,54,57,NOT APPLICABLE,
S0107,4,neutrophil_count_decreased,N,2,74,75,NOT APPLICABLE,
S0107,5,peripheral_edema,N,2,116,117,NOT APPLICABLE,
S0107,6,acute renal failure adverse events,N,1,135,141,NOT APPLICABLE,
S0107,7,neuropathy-motor,N,1,141,142,NOT APPLICABLE,
S0107,8,influenza,N,2,143,144,NOT APPLICABLE,
S0107,9,fatigue,N,2,189,190,NOT APPLICABLE,
S0107,10,spasm,N,1,297,298,NOT APPLICABLE,
S0107,11,pain_in_limb,N,2,298,299,NOT APPLICABLE,
S0107,12,hypertension adverse events,N,1,337,365,NOT APPLICABLE,
S0108,1,decrease_in_appetite,N,1,1,2,NOT APPLICABLE,
S0108,2,rash/desquamation,N,2,12,13,NOT APPLICABLE,
S0108,3,thrombocytopenia,N,1,57,58,hold,DM011
S0108,4,hypercholesterolemia,N,1,64,65,NOT APPLICABLE,
S0108,5,neutrophil_count_decreased,N,1,70,71,NOT APPLICABLE,
S0108,6,hypertension_variable,N,1,80,85,hold,DM034
S0109,1,anemia,N,1,5,6,NOT APPLICABLE,
S0109,2,neutropenia,N,1,13,14,NOT APPLICABLE,
S0109,3,sleeplessness,N,2,148,149,NOT APPLICABLE,
S0109,4,rash_erythematous_macules_or_papules,N,1,216,217,NOT APPLICABLE,
S0109,5,neutrophil_count_decreased,N,2,259,260,NOT APPLICABLE,
S0109,6,hypertension_variable,N,2,293,294,hold,DM034
S0109,7,hypertension adverse events,N,2,297,298,hold,DM034
S0109,8,spasm,N,1,325,326,NOT APPLICABLE,
S0109,9,pain_in_limb,N,1,335,337,NOT APPLICABLE,
S0109,10,hypocalcemia,N,2,341,365,NOT APPLICABLE,
S0110,1,sleeplessness,N,2,86,87,NOT APPLICABLE,
S0110,2,acute renal failure,N,2,91,92,NOT APPLICABLE,
S0110,3,neutrophil_count_decreased,N,1,137,141,NOT APPLICABLE,
S0110,4,fatigue,N,2,172,173,NOT APPLICABLE,
S0110,5,hypoalbuminemia,N,1,178,179,NOT APPLICABLE,
S0110,6,diarrhea,N,2,180,181,NOT APPLICABLE,
S0110,7,weight_loss,N,1,181,182,NOT APPLICABLE,
S0110,8,decreased_platelet_count,N,1,182,183,hold,DM011
S0110,9,blurred_vision,N,2,184,185,NOT APPLICABLE,
S0110,10,neuropathy-sensory,N,2,217,218,hold,DM030
S0110,11,non_cardiac_chest_pain,N,2,241,242,NOT APPLICABLE,
S0110,12,peripheral_edema,N,2,254,255,NOT APPLICABLE,
S0110,13,anemia,N,2,269,270,NOT APPLICABLE,
S0110,14,hypocalcemia,N,1,278,281,NOT APPLICABLE,
S0110,15,neutropenia,N,2,347,365,NOT APPLICABLE,
S0110,16,acute renal failure adverse events,N,1,364,365,NOT APPLICABLE,
S0111,1,leukopenia,N,2,8,9,NOT APPLICABLE,
S0111,2,neuralgia,N,2,75,76,NOT APPLICABLE,
S0111,3,hypertension_variable,N,1,104,105,hold,DM034
S0111,4,dizziness,N,1,110,113,NOT APPLICABLE,
S0111,5,peripheral_nervous_system_diseases,N,1,118,119,NOT APPLICABLE,
S0111,6,constipation,N,1,162,169,NOT APPLICABLE,
S0111,7,thrombocytopenia,N,2,167,169,hold,DM011
S0111,8,sensory_neuropathy,N,1,170,171,NOT APPLICABLE,
S0111,9,hypertension,N,1,178,179,hold,DM034
S0111,10,vomiting,N,2,253,254,NOT APPLICABLE,
S0111,11,nasopharyngitis,N,1,281,282,NOT APPLICABLE,
S0111,12,hypercholesterolemia,N,1,294,295,NOT APPLICABLE,
S0111,13,rash/desquamation,N,2,308,309,NOT APPLICABLE,
S0111,14,neuropathy-sensory,N,1,320,321,NOT APPLICABLE,
S0112,1,nausea,N,2,50,57,NOT APPLICABLE,
S0112,2,neutrophil_count_decreased,N,1,126,127,NOT APPLICABLE,
S0112,3,hypocalcemia,N,2,174,175,NOT APPLICABLE,
S0112,4,blurred_vision,N,2,176,177,NOT APPLICABLE,
S0112,5,vomiting,N,2,178,179,NOT APPLICABLE,
S0112,6,back_pain,N,1,189,190,NOT APPLICABLE,
S0112,7,fever,N,2,202,203,NOT APPLICABLE,
S0112,8,anemia,N,1,207,208,NOT APPLICABLE,
S0112,9,cataract,N,2,210,211,NOT APPLICABLE,
S0112,10,pain_in_limb,N,1,211,212,NOT APPLICABLE,
S0112,11,hypertension_variable,N,1,293,294,hold,DM034
S0112,12,acute renal failure,N,2,301,302,NOT APPLICABLE,
S0112,13,hypertension adverse events,N,2,346,365,NOT APPLICABLE,
S0113,1,rash/desquamation,N,1,12,13,NOT APPLICABLE,
S0113,2,back_pain,N,2,76,77,NOT APPLICABLE,
S0113,3,bone_pain,N,1,98,99,NOT APPLICABLE,
S0113,4,peripheral_nervous_system_diseases,N,2,110,113,NOT APPLICABLE,
S0113,5,neuralgia,N,2,127,128,NOT APPLICABLE,
S0113,6,dyspepsia,N,1,153,154,NOT APPLICABLE,
S0113,7,cataract,N,1,155,156,NOT APPLICABLE,
S0113,8,thrombocytopenia,N,2,175,176,hold,DM011
S0113,9,hypercholesterolemia,N,2,201,202,NOT APPLICABLE,
S0113,10,anemia,N,1,232,233,NOT APPLICABLE,
S0113,11,influenza,N,2,278,281,NOT APPLICABLE,
S0113,12,hypertension_variable,N,2,304,309,hold,DM034
S0113,13,neuropathy-sensory,N,1,319,320,NOT APPLICABLE,
S0113,14,neutrophil_count_decreased,N,1,326,327,NOT APPLICABLE,
S0114,1,nausea,N,2,10,11,NOT APPLICABLE,
S0114,2,hypertension_variable,N,2,13,14,hold,DM034
S0114,3,neuropathy-sensory,N,2,22,29,hold,DM030
S0114,4,sensory_neuropathy,N,1,55,57,NOT APPLICABLE,
S0114,5,vomiting,N,2,71,72,NOT APPLICABLE,
S0114,6,non_cardiac_chest_pain,N,1,82,85,NOT APPLICABLE,
S0114,7,hyponatremia,N,1,152,153,NOT APPLICABLE,
S0114,8,dizziness,N,1,157,158,NOT APPLICABLE,
S0114,9,weight_loss,N,2,170,171,NOT APPLICABLE,
S0114,10,sleeplessness,N,2,191,197,NOT APPLICABLE,
S0114,11,hypokalemia,N,1,233,234,NOT APPLICABLE,
S0114,12,hypertension adverse events,N,1,240,241,hold,DM034
S0114,13,blurred_vision,N,2,256,257,NOT APPLICABLE,
S0114,14,upper_respiratory_infections,Y,3,271,273,hold,DM028
S0114,15,pain_in_limb,N,2,302,309,NOT APPLICABLE,
S0114,16,hypertension adverse events,N,2,316,317,hold,DM034
S0114,17,anemia,N,1,351,365,NOT APPLICABLE,
S0114,18,neutrophil_count_decreased,N,2,360,365,NOT APPLICABLE,
S0115,1,hypertension_variable,N,1,14,15,hold,DM034
S0115,2,rash_erythematous_macules_or_papules,N,2,31,32,NOT APPLICABLE,
S0115,3,peripheral_nervous_system_diseases,N,2,59,60,NOT APPLICABLE,
S0115,4,neuropathy-sensory,N,2,102,103,hold,DM030
S0115,5,neutrophil_count_decreased,N,1,188,189,NOT APPLICABLE,
S0115,6,dizziness,N,2,190,197,NOT APPLICABLE,
S0115,7,anorexia,N,1,190,197,NOT APPLICABLE,
S0115,8,pain_in_limb,N,1,230,231,NOT APPLICABLE,
S0115,9,neuralgia,N,1,232,233,NOT APPLICABLE,
S0115,10,bone_pain,N,1,248,253,NOT APPLICABLE,
S0115,11,leukopenia,N,2,270,271,NOT APPLICABLE,
S0115,12,hypercholesterolemia,N,2,307,309,NOT APPLICABLE,
S0115,13,anemia,N,2,313,314,NOT APPLICABLE,
S0115,14,cataract,N,2,313,314,NOT APPLICABLE,
S0115,15,thrombocytopenia,N,2,317,318,hold,DM011
S0115,16,rash/desquamation,N,1,322,323,NOT APPLICABLE,
S0116,1,bone_pain,N,2,79,85,NOT APPLICABLE,
S0116,2,sensory_neuropathy,N,2,83,85,hold,DM030
S0116,3,neutropenia,N,1,91,92,NOT APPLICABLE,
S0116,4,hypertension_variable,N,2,104,105,hold,DM034
S0116,5,thrombocytopenia,N,2,119,120,hold,DM011
S0116,6,dyspepsia,N,1,177,178,NOT APPLICABLE,
S0116,7,anemia,N,1,219,225,NOT APPLICABLE,
S0116,8,rash/desquamation,N,2,263,264,NOT APPLICABLE,
S0116,9,neutrophil_count_decreased,N,1,301,302,NOT APPLICABLE,
S0116,10,hypercholesterolemia,N,1,304,309,NOT APPLICABLE,
S0116,11,neuralgia,N,1,331,337,NOT APPLICABLE,
S0116,12,peripheral_nervous_system_diseases,N,1,353,365,NOT APPLICABLE,
S0116,13,diarrhea,N,2,366,393,NOT APPLICABLE,
S0117,1,decrease_in_appetite,N,2,3,4,NOT APPLICABLE,
S0117,2,hypertension_variable,N,2,4,5,NOT APPLICABLE,
S0117,3,thrombosis/thrombus/embolism,N,2,5,6,NOT APPLICABLE,
S0117,4,hypercholesterolemia,N,2,6,7,NOT APPLICABLE,
S0117,5,anemia,N,1,10,11,NOT APPLICABLE,
S0117,6,thrombocytopenia,N,2,11,12,NOT APPLICABLE,
S0117,7,neutrophil_count_decreased,N,1,11,12,NOT APPLICABLE,
S0117,8,hypertension,N,1,11,12,NOT APPLICABLE,
S0117,9,dizziness,N,1,13,14,NOT APPLICABLE,
S0117,10,rash/desquamation,N,2,13,14,NOT APPLICABLE,
S0117,11,neuralgia,N,1,18,19,NOT APPLICABLE,
S0117,12,pneumonia,Y,3,20,22,NOT APPLICABLE,
S0117,13,sensory_neuropathy,N,1,21,22,NOT APPLICABLE,
S0117,14,vomiting,N,2,21,22,NOT APPLICABLE,
S0117,15,respiratory_tract_infections,N,2,21,22,NOT APPLICABLE,
S0117,16,cataract,N,1,24,29,NOT APPLICABLE,
S0117,17,hypocalcemia,N,1,24,29,NOT APPLICABLE,
S0117,18,bone_pain,N,1,26,29,NOT APPLICABLE,
S0117,19,back_pain,N,2,27,29,NOT APPLICABLE,
S0117,20,peripheral_nervous_system_diseases,N,2,27,29,NOT APPLICABLE,
S0117,21,peripheral_edema,N,2,30,31,NOT APPLICABLE,
S0117,22,neuropathy-sensory,N,2,32,33,NOT APPLICABLE,
S0118,1,anemia,N,1,25,29,NOT APPLICABLE,
S0118,2,decreased_platelet_count,N,1,45,46,hold,DM011
S0118,3,dizziness,N,2,82,85,NOT APPLICABLE,
S0118,4,hypertension_variable,N,1,113,114,hold,DM034
S0118,5,hypokalemia,N,2,113,114,NOT APPLICABLE,
S0118,6,sleeplessness,N,2,129,130,NOT APPLICABLE,
S0118,7,hypertension adverse events,N,1,144,145,hold,DM034
S0118,8,hypocalcemia,N,2,149,150,NOT APPLICABLE,
S0118,9,cardiac failure events,N,2,168,169,NOT APPLICABLE,
S0118,10,pain_in_limb,N,2,169,170,NOT APPLICABLE,
S0118,11,hypoalbuminemia,N,1,169,170,NOT APPLICABLE,
S0118,12,peripheral_nervous_system_diseases,N,2,219,225,NOT APPLICABLE,
S0118,13,upper_respiratory_infections,N,1,242,243,NOT APPLICABLE,
S0118,14,spasm,N,1,266,267,NOT APPLICABLE,
S0118,15,hypertension,N,1,283,284,hold,DM034
S0118,16,rash/desquamation,N,1,292,293,NOT APPLICABLE,
S0118,17,gastroenteritis,N,2,329,330,NOT APPLICABLE,
S0118,18,neutropenia,N,1,331,337,NOT APPLICABLE,
S0118,19,pain,N,2,341,365,NOT APPLICABLE,
S0118,20,acute renal failure,N,1,360,365,NOT APPLICABLE,
S0119,1,blurred_vision,N,1,7,8,NOT APPLICABLE,
S0119,2,hypocalcemia,N,1,21,22,NOT APPLICABLE,
S0119,3,fatigue,N,1,61,62,NOT APPLICABLE,
S0119,4,hypertension adverse events,N,2,82,85,hold,DM034
S0119,5,constipation,N,1,98,99,NOT APPLICABLE,
S0119,6,hyperglycemia,N,2,108,113,NOT APPLICABLE,
S0119,7,sleeplessness,N,1,122,123,NOT APPLICABLE,
S0119,8,weight_loss,N,2,126,127,NOT APPLICABLE,
S0119,9,thrombocytopenia,Y,3,136,142,hold,DM011
S0119,10,neutrophil_count_decreased,N,2,151,152,NOT APPLICABLE,
S0119,11,pain_in_limb,N,2,164,169,NOT APPLICABLE,
S0119,12,upper_respiratory_infections,N,1,174,175,NOT APPLICABLE,
S0119,13,acute renal failure,N,1,212,213,NOT APPLICABLE,
S0119,14,hypoalbuminemia,N,2,216,217,NOT APPLICABLE,
S0119,15,neutropenia,N,1,242,243,NOT APPLICABLE,
S0119,16,hemoglobin_normal_12_16_gm,N,2,250,253,NOT APPLICABLE,
S0120,1,neuralgia,N,1,11,12,NOT APPLICABLE,
S0120,2,hypertriglyceridemia,N,1,38,39,NOT APPLICABLE,
S0120,3,vomiting,N,2,93,94,NOT APPLICABLE,
S0120,4,back_pain,N,1,107,113,NOT APPLICABLE,
S0120,5,rash/desquamation,N,2,111,113,NOT APPLICABLE,
S0120,6,neuropathy-sensory,N,1,169,170,NOT APPLICABLE,
S0120,7,hypertension_variable,N,1,185,186,hold,DM034
S0120,8,hypercholesterolemia,N,1,217,218,NOT APPLICABLE,
S0120,9,neutrophil_count_decreased,N,1,231,232,NOT APPLICABLE,
S0120,10,thrombocytopenia,N,1,238,239,hold,DM011
S0120,11,sensory_neuropathy,N,2,247,253,hold,DM030
S0121,1,hypercholesterolemia,N,2,19,20,NOT APPLICABLE,
S0121,2,neuralgia,N,2,24,29,NOT APPLICABLE,
S0121,3,peripheral_nervous_system_diseases,N,1,38,39,NOT APPLICABLE,
S0121,4,thrombocytopenia,N,2,57,58,hold,DM011
S0121,5,dysgeusia,N,2,60,61,NOT APPLICABLE,
S0121,6,spasm,N,2,72,73,NOT APPLICABLE,
S0121,7,dyspepsia,N,1,74,75,NOT APPLICABLE,
S0121,8,decrease_in_appetite,N,2,80,85,NOT APPLICABLE,
S0121,9,rash/desquamation,N,1,94,95,NOT APPLICABLE,
S0121,10,hypertension_variable,N,1,116,117,NOT APPLICABLE,
S0121,11,neutrophil_count_decreased,N,2,120,121,NOT APPLICABLE,
S0122,1,fatigue,N,1,1,2,NOT APPLICABLE,
S0122,2,influenza,N,1,11,12,NOT APPLICABLE,
S0122,3,acute renal failure,N,2,52,57,NOT APPLICABLE,
S0122,4,acute renal failure,N,1,59,60,NOT APPLICABLE,
S0122,5,hypocalcemia,N,2,138,141,NOT APPLICABLE,
S0122,6,"potassium,_serum-low_(hypokalemia)",N,2,174,175,NOT APPLICABLE,
S0122,7,hemoglobin_normal_12_16_gm,N,1,199,200,NOT APPLICABLE,
S0122,8,nausea,N,1,206,207,NOT APPLICABLE,
S0122,9,hypoalbuminemia,N,2,212,213,NOT APPLICABLE,
S0122,10,hypertension_variable,N,1,227,228,hold,DM034
S0122,11,neutrophil_count_decreased,N,1,250,253,NOT APPLICABLE,
S0122,12,weight_loss,N,1,280,281,NOT APPLICABLE,
S0122,13,neuropathy-motor,N,1,295,296,NOT APPLICABLE,
S0122,14,dizziness,N,1,317,318,NOT APPLICABLE,
S0122,15,vomiting,N,2,363,365,NOT APPLICABLE,
S0123,1,falls,N,1,16,17,NOT APPLICABLE,
S0123,2,dyspepsia,N,2,18,19,NOT APPLICABLE,
S0123,3,rash/desquamation,N,2,50,57,NOT APPLICABLE,
S0123,4,peripheral_nervous_system_diseases,N,2,61,62,NOT APPLICABLE,
S0123,5,pain_in_limb,N,2,63,64,NOT APPLICABLE,
S0123,6,neuralgia,N,1,65,66,NOT APPLICABLE,
S0123,7,neutrophil_count_decreased,N,1,67,68,NOT APPLICABLE,
S0123,8,hypercholesterolemia,N,2,81,85,NOT APPLICABLE,
S0123,9,hypertension_variable,N,2,92,93,hold,DM034
S0123,10,bone_pain,N,2,107,113,NOT APPLICABLE,
S0123,11,hypertension,N,2,200,201,hold,DM034
S0123,12,thrombocytopenia,N,1,236,237,hold,DM011
S0124,1,peripheral_nervous_system_diseases,N,1,63,64,NOT APPLICABLE,
S0124,2,bone_pain,N,1,85,86,NOT APPLICABLE,
S0124,3,thrombocytopenia,N,1,94,95,hold,DM011
S0124,4,dizziness,N,2,108,113,NOT APPLICABLE,
S0124,5,hypercholesterolemia,N,2,115,116,NOT APPLICABLE,
S0124,6,hypertension_variable,N,2,173,174,hold,DM034
S0124,7,back_pain,N,2,174,175,NOT APPLICABLE,
S0124,8,sensory_neuropathy,N,1,186,187,NOT APPLICABLE,
S0124,9,hypertriglyceridemia,N,1,255,256,NOT APPLICABLE,
S0124,10,rash/desquamation,N,1,275,281,NOT APPLICABLE,
S0124,11,dyspepsia,N,1,303,309,NOT APPLICABLE,
S0124,12,diarrhea,N,1,321,322,NOT APPLICABLE,
S0124,13,neuropathy-sensory,N,1,341,365,NOT APPLICABLE,
S0124,14,neutrophil_count_decreased,N,1,348,365,NOT APPLICABLE,
S0124,15,decrease_in_appetite,N,2,355,365,NOT APPLICABLE,
S0124,16,neuralgia,N,1,359,365,NOT APPLICABLE,
S0125,1,fatigue,N,2,10,11,NOT APPLICABLE,
S0125,2,anemia,N,2,20,21,NOT APPLICABLE,
S0125,3,weight_loss,N,2,27,29,NOT APPLICABLE,
S0125,4,bronchitis,Y,3,38,40,NOT APPLICABLE,
S0125,5,neutropenia,N,1,88,89,NOT APPLICABLE,
S0125,6,bone_pain,N,2,91,92,NOT APPLICABLE,
S0125,7,pain_in_limb,N,1,110,113,NOT APPLICABLE,
S0125,8,dizziness,N,1,132,133,NOT APPLICABLE,
S0125,9,pain,N,1,140,141,NOT APPLICABLE,
S0125,10,respiratory_tract_infections,N,2,159,160,NOT APPLICABLE,
S0125,11,vomiting,N,2,334,337,NOT APPLICABLE,
S0126,1,leukopenia,N,2,1,2,NOT APPLICABLE,
S0126,2,neutrophil_count_decreased,N,1,25,29,NOT APPLICABLE,
S0126,3,neuralgia,N,1,65,66,NOT APPLICABLE,
S0126,4,neuropathy-sensory,N,1,72,73,NOT APPLICABLE,
S0126,5,hypertension,N,2,80,85,hold,DM034
S0126,6,headache,N,2,96,97,NOT APPLICABLE,
S0126,7,spasm,N,1,102,103,NOT APPLICABLE,
S0126,8,hypertension_variable,N,1,111,113,hold,DM034
S0126,9,thrombocytopenia,N,1,117,118,hold,DM011
S0126,10,dyspnea,N,2,122,123,hold,DM032
S0126,11,dry_skin,N,1,131,132,NOT APPLICABLE,
S0126,12,dyspepsia,N,1,142,143,NOT APPLICABLE,
S0126,13,hypercholesterolemia,N,2,172,173,NOT APPLICABLE,
S0126,14,sensory_neuropathy,N,1,190,197,NOT APPLICABLE,
S0126,15,neutropenia,N,2,196,197,NOT APPLICABLE,
S0126,16,bone_pain,N,2,204,205,NOT APPLICABLE,
S0126,17,anemia,N,2,209,210,NOT APPLICABLE,
S0126,18,hypoalbuminemia,N,1,234,235,NOT APPLICABLE,
S0126,19,back_pain,N,2,238,239,NOT APPLICABLE,
S0126,20,lower_respiratory_tract_infection,Y,3,238,240,hold,DM028
S0126,21,respiratory_tract_infections,Y,3,240,242,hold,DM028
S0126,22,respiratory_tract_infections,N,2,241,242,NOT APPLICABLE,
S0126,23,constipation,N,1,281,282,NOT APPLICABLE,
S0126,24,cataract,N,1,282,283,NOT APPLICABLE,
S0126,25,hypertension,N,2,285,286,hold,DM034
S0126,26,nasopharyngitis,N,1,291,292,NOT APPLICABLE,
S0126,27,fatigue,N,2,344,365,NOT APPLICABLE,
S0126,28,hypertriglyceridemia,N,1,363,365,NOT APPLICABLE,
S0126,29,vomiting,N,1,364,365,NOT APPLICABLE,
S0126,30,rash/desquamation,N,2,366,393,NOT APPLICABLE,
S0127,1,neuropathy-sensory,N,2,9,10,hold,DM030
S0127,2,dehydration,Y,3,13,15,NOT APPLICABLE,
S0127,3,"potassium,_serum-low_(hypokalemia)",N,2,48,49,NOT APPLICABLE,
S0127,4,leukopenia,N,1,58,59,NOT APPLICABLE,
S0127,5,spasm,N,2,66,67,NOT APPLICABLE,
S0127,6,kidney_failure_acute,Y,3,76,78,NOT APPLICABLE,
S0127,7,vomiting,N,1,82,85,NOT APPLICABLE,
S0127,8,hypertriglyceridemia,N,2,94,95,NOT APPLICABLE,
S0127,9,hypertension,N,2,102,103,hold,DM034
S0127,10,hypertension,N,2,107,113,hold,DM034
S0127,11,anemia,N,1,116,117,NOT APPLICABLE,
S0127,12,peripheral_nervous_system_diseases,N,2,126,127,NOT APPLICABLE,
S0127,13,hypoalbuminemia,N,1,128,129,NOT APPLICABLE,
S0127,14,nasopharyngitis,N,2,146,147,NOT APPLICABLE,
S0127,15,decrease_in_appetite,N,1,148,149,NOT APPLICABLE,
S0127,16,influenza,N,1,157,158,NOT APPLICABLE,
S0127,17,hypercholesterolemia,N,1,174,175,NOT APPLICABLE,
S0127,18,neutrophil_count_decreased,N,2,182,183,NOT APPLICABLE,
S0127,19,bone_pain,N,1,187,188,NOT APPLICABLE,
S0127,20,urinary_tract_infection,Y,3,196,198,hold,DM028
S0127,21,rash/desquamation,N,1,218,225,NOT APPLICABLE,
S0127,22,cataract,N,1,223,225,NOT APPLICABLE,
S0127,23,upper_respiratory_infections,Y,3,229,231,hold,DM028
S0127,24,neuralgia,N,1,232,233,NOT APPLICABLE,
S0127,25,back_pain,N,2,241,242,NOT APPLICABLE,
S0127,26,nausea,N,2,279,281,NOT APPLICABLE,
S0127,27,respiratory_tract_infections,Y,3,284,286,hold,DM028
S0127,28,thrombocytopenia,N,2,309,310,hold,DM011
S0127,29,pain,N,2,313,314,NOT APPLICABLE,
S0127,30,lower_respiratory_tract_infection,Y,3,330,365,hold,DM028
S0127,31,hypertension_variable,N,1,356,365,NOT APPLICABLE,
S0127,32,pain_in_limb,N,2,357,365,NOT APPLICABLE,
S0128,1,rash/desquamation,N,2,20,21,NOT APPLICABLE,
S0128,2,thrombocytopenia,N,1,143,144,hold,DM011
S0128,3,hypercholesterolemia,N,2,222,225,NOT APPLICABLE,
S0128,4,decrease_in_appetite,N,2,271,272,NOT APPLICABLE,
S0128,5,neutrophil_count_decreased,N,1,287,288,NOT APPLICABLE,
S0129,1,neuropathy-sensory,N,1,3,4,NOT APPLICABLE,
S0129,2,thrombocytopenia,N,2,13,14,hold,DM011
S0129,3,pain,N,2,13,14,NOT APPLICABLE,
S0129,4,neutropenia,N,2,16,17,NOT APPLICABLE,
S0129,5,"potassium,_serum-low_(hypokalemia)",N,1,20,21,NOT APPLICABLE,
S0129,6,back_pain,N,2,23,29,NOT APPLICABLE,
S0129,7,leukopenia,N,2,46,47,NOT APPLICABLE,
S0129,8,hypercholesterolemia,N,2,55,57,NOT APPLICABLE,
S0129,9,coughing,N,1,63,64,NOT APPLICABLE,
S0129,10,peripheral_nervous_system_diseases,N,2,64,65,NOT APPLICABLE,
S0129,11,decreased_platelet_count,N,2,66,67,hold,DM011
S0129,12,influenza,N,2,77,78,NOT APPLICABLE,
S0129,13,dry_skin,N,1,80,85,NOT APPLICABLE,
S0129,14,anemia,N,2,83,85,NOT APPLICABLE,
S0129,15,thrombosis/thrombus/embolism,N,1,88,89,NOT APPLICABLE,
S0129,16,upper_respiratory_infections,Y,3,88,90,hold,DM028
S0129,17,rash/desquamation,N,2,92,93,NOT APPLICABLE,
S0129,18,diarrhea,N,1,99,100,NOT APPLICABLE,
S0129,19,rash_erythematous_macules_or_papules,N,2,104,105,NOT APPLICABLE,
S0129,20,fever,Y,3,131,133,NOT APPLICABLE,
S0129,21,thrombocytopenia,Y,3,171,173,hold,DM011
S0129,22,hypertension_variable,N,2,175,176,hold,DM034
S0129,23,non_cardiac_chest_pain,N,2,178,179,NOT APPLICABLE,
S0129,24,hyperglycemia,Y,3,182,184,NOT APPLICABLE,
S0129,25,anorexia,N,1,189,190,NOT APPLICABLE,
S0129,26,headache,N,1,191,197,NOT APPLICABLE,
S0129,27,bone_pain,N,1,191,197,NOT APPLICABLE,
S0129,28,sensory_neuropathy,N,1,193,197,NOT APPLICABLE,
S0129,29,hypoalbuminemia,N,1,199,200,NOT APPLICABLE,
S0129,30,constipation,N,2,202,203,NOT APPLICABLE,
S0129,31,respiratory_tract_infections,Y,3,203,205,hold,DM028
S0129,32,vomiting,N,1,209,210,NOT APPLICABLE,
S0129,33,lower_respiratory_tract_infection,Y,3,210,212,hold,DM028
S0129,34,spasm,N,2,226,227,NOT APPLICABLE,
S0129,35,neuralgia,N,2,226,227,NOT APPLICABLE,
S0129,36,sleeplessness,N,1,229,230,NOT APPLICABLE,
S0129,37,pain_in_limb,N,2,236,237,NOT APPLICABLE,
S0129,38,decrease_in_appetite,N,2,236,237,NOT APPLICABLE,
S0129,39,asthenia,N,2,238,239,NOT APPLICABLE,
S0129,40,dyspepsia,N,2,239,240,NOT APPLICABLE,
S0129,41,neutrophil_count_decreased,N,1,241,242,NOT APPLICABLE,
S0129,42,peripheral_edema,N,1,246,253,NOT APPLICABLE,
S0129,43,hypertension,N,2,249,253,NOT APPLICABLE,
S0129,44,arthralgia,N,2,253,254,NOT APPLICABLE,
S0130,1,influenza,N,1,8,9,NOT APPLICABLE,
S0130,2,nausea,N,1,15,16,NOT APPLICABLE,
S0130,3,spasm,N,2,18,19,NOT APPLICABLE,
S0130,4,anemia,N,2,26,29,NOT APPLICABLE,
S0130,5,hypertension,N,2,60,61,hold,DM034
S0130,6,asthenia,N,1,82,85,NOT APPLICABLE,
S0130,7,decreased_platelet_count,N,1,99,100,hold,DM011
S0130,8,hyperglycemia,N,1,125,126,NOT APPLICABLE,
S0130,9,diarrhea,N,2,141,142,NOT APPLICABLE,
S0130,10,hypoalbuminemia,N,1,157,158,NOT APPLICABLE,
S0130,11,neutrophil_count_decreased,N,1,165,169,NOT APPLICABLE,
S0130,12,acute renal failure,N,1,170,171,NOT APPLICABLE,
S0130,13,neuropathic_pain,N,2,251,253,NOT APPLICABLE,
S0130,14,cardiac failure events,N,1,255,256,NOT APPLICABLE,
S0130,15,hypocalcemia,N,2,301,302,NOT APPLICABLE,
S0130,16,leukopenia,N,1,305,309,NOT APPLICABLE,
S0130,17,pain_in_limb,N,1,324,325,NOT APPLICABLE,
S0130,18,respiratory_tract_infections,N,1,345,365,NOT APPLICABLE,
S0131,1,thrombocytopenia,N,2,139,141,hold,DM011
S0131,2,respiratory_tract_infections,Y,3,139,142,hold,DM028
S0131,3,sensory_neuropathy,N,1,149,150,NOT APPLICABLE,
S0131,4,rash/desquamation,N,1,160,161,NOT APPLICABLE,
S0131,5,neutrophil_count_decreased,N,2,166,169,NOT APPLICABLE,
S0131,6,"potassium,_serum-low_(hypokalemia)",N,1,166,169,NOT APPLICABLE,
S0131,7,decrease_in_appetite,N,2,183,184,NOT APPLICABLE,
S0131,8,anemia,N,1,216,217,NOT APPLICABLE,
S0131,9,hypercholesterolemia,N,1,219,225,NOT APPLICABLE,
S0131,10,neuralgia,N,1,227,228,NOT APPLICABLE,
S0131,11,hypertension_variable,N,1,251,253,hold,DM034
S0131,12,peripheral_nervous_system_diseases,N,2,258,259,NOT APPLICABLE,
S0131,13,constipation,N,2,272,273,NOT APPLICABLE,
S0131,14,vomiting,N,2,347,365,NOT APPLICABLE,
S0132,1,neutrophil_count_decreased,N,2,11,12,NOT APPLICABLE,
S0132,2,fatigue,N,2,29,30,NOT APPLICABLE,
S0132,3,neuropathy-sensory,N,1,57,58,NOT APPLICABLE,
S0132,4,nausea,N,2,102,103,NOT APPLICABLE,
S0132,5,anemia,N,2,139,141,NOT APPLICABLE,
S0132,6,pain,N,2,161,162,NOT APPLICABLE,
S0132,7,non_cardiac_chest_pain,N,1,164,169,NOT APPLICABLE,
S0132,8,hypertension adverse events,N,1,198,199,hold,DM034
S0132,9,dizziness,N,2,203,204,NOT APPLICABLE,
S0132,10,decreased_platelet_count,N,2,211,212,hold,DM011
S0132,11,acute renal failure,N,1,215,216,NOT APPLICABLE,
S0132,12,respiratory_tract_infections,N,2,271,272,NOT APPLICABLE,
S0132,13,diarrhea,N,1,286,287,NOT APPLICABLE,
S0132,14,hypertension,N,2,292,293,hold,DM034
S0132,15,hypertension,N,1,325,326,hold,DM034
S0132,16,dry_skin,N,2,335,337,NOT APPLICABLE,
S0132,17,sleeplessness,N,1,345,365,NOT APPLICABLE,
S0132,18,neuropathy-motor,N,1,354,365,NOT APPLICABLE,
S0132,19,neutropenia,N,1,365,393,NOT APPLICABLE,
S0133,1,hypertension,N,1,3,4,hold,DM034
S0133,2,spasm,N,2,13,14,NOT APPLICABLE,
S0133,3,decrease_in_appetite,N,2,55,57,NOT APPLICABLE,
S0133,4,thrombosis/thrombus/embolism,Y,3,82,86,NOT APPLICABLE,
S0133,5,neuropathy-sensory,N,2,91,92,hold,DM030
S0133,6,bone_pain,N,2,95,96,NOT APPLICABLE,
S0133,7,sleeplessness,N,2,111,113,NOT APPLICABLE,
S0133,8,hypertension_variable,N,1,112,113,hold,DM034
S0133,9,peripheral_nervous_system_diseases,N,2,139,141,NOT APPLICABLE,
S0133,10,sensory_neuropathy,N,2,141,142,hold,DM030
S0133,11,hypercholesterolemia,N,2,151,152,NOT APPLICABLE,
S0133,12,dyspepsia,N,1,190,197,NOT APPLICABLE,
S0133,13,neuralgia,N,1,191,197,NOT APPLICABLE,
S0133,14,leukopenia,N,1,227,228,NOT APPLICABLE,
S0133,15,hypertriglyceridemia,N,2,239,240,NOT APPLICABLE,
S0133,16,rash/desquamation,N,2,278,281,NOT APPLICABLE,
S0133,17,thrombocytopenia,N,2,281,282,hold,DM011
S0133,18,neutrophil_count_decreased,N,1,300,301,NOT APPLICABLE,
S0133,19,anemia,N,1,310,311,NOT APPLICABLE,
S0134,1,thrombocytopenia,N,2,43,44,hold,DM011
S0134,2,hypertension_variable,N,1,65,66,hold,DM034
S0134,3,anorexia,N,2,138,141,NOT APPLICABLE,
S0134,4,neutrophil_count_decreased,N,2,152,153,NOT APPLICABLE,
S0134,5,neuropathy-sensory,N,1,154,155,NOT APPLICABLE,
S0134,6,neuralgia,N,1,194,197,NOT APPLICABLE,
S0134,7,decrease_in_appetite,N,1,208,209,NOT APPLICABLE,
S0134,8,hypercholesterolemia,N,2,263,264,NOT APPLICABLE,
S0134,9,rash/desquamation,N,1,294,295,NOT APPLICABLE,
S0134,10,back_pain,N,2,356,365,NOT APPLICABLE,
S0135,1,acute renal failure adverse events,N,1,14,15,NOT APPLICABLE,
S0135,2,neutropenia,N,1,16,17,NOT APPLICABLE,
S0135,3,pain_in_limb,N,1,35,36,NOT APPLICABLE,
S0135,4,hypertension,N,2,48,49,hold,DM034
S0135,5,hypertension_variable,N,2,50,57,hold,DM034
S0135,6,blurred_vision,N,2,107,113,NOT APPLICABLE,
S0135,7,hypocalcemia,N,1,121,122,NOT APPLICABLE,
S0135,8,dizziness,N,2,122,123,NOT APPLICABLE,
S0135,9,weight_loss,N,1,137,141,NOT APPLICABLE,
S0135,10,pain,N,1,166,169,NOT APPLICABLE,
S0135,11,hypoalbuminemia,N,1,168,169,NOT APPLICABLE,
S0135,12,hypertension,N,2,197,198,hold,DM034
S0135,13,nasopharyngitis,N,1,203,204,NOT APPLICABLE,
S0135,14,neuropathy-sensory,N,2,222,225,hold,DM030
S0135,15,non_cardiac_chest_pain,N,1,223,225,NOT APPLICABLE,
S0135,16,spasm,N,2,236,237,NOT APPLICABLE,
S0135,17,respiratory_tract_infections,N,2,249,253,NOT APPLICABLE,
S0135,18,constipation,N,2,276,281,NOT APPLICABLE,
S0135,19,influenza,N,1,284,285,NOT APPLICABLE,
S0136,1,dry_skin,N,2,1,2,NOT APPLICABLE,
S0136,2,diarrhea,N,1,2,3,NOT APPLICABLE,
S0136,3,dyspepsia,N,1,2,3,NOT APPLICABLE,
S0136,4,rash/desquamation,N,1,2,3,NOT APPLICABLE,
S0136,5,edema:_limb,N,1,3,4,NOT APPLICABLE,
S0136,6,upper_respiratory_infections,N,2,5,6,NOT APPLICABLE,
S0136,7,peripheral_nervous_system_diseases,N,1,11,12,NOT APPLICABLE,
S0136,8,nausea,N,2,13,14,NOT APPLICABLE,
S0136,9,decrease_in_appetite,N,2,15,16,NOT APPLICABLE,
S0136,10,sensory_neuropathy,N,1,16,17,NOT APPLICABLE,
S0136,11,neuropathy-sensory,N,1,16,17,NOT APPLICABLE,
S0136,12,nasopharyngitis,N,2,19,20,NOT APPLICABLE,
S0136,13,hypertension,N,2,20,21,NOT APPLICABLE,
S0136,14,anemia,N,2,22,29,NOT APPLICABLE,
S0136,15,neutropenia,N,2,22,29,NOT APPLICABLE,
S0136,16,pain_in_limb,N,1,23,29,NOT APPLICABLE,
S0136,17,influenza,N,2,23,29,NOT APPLICABLE,
S0136,18,hypertension_variable,N,2,28,29,NOT APPLICABLE,
S0136,19,dizziness,N,1,28,29,NOT APPLICABLE,
S0136,20,respiratory_tract_infections,Y,3,30,32,NOT APPLICABLE,
S0136,21,hypertension,N,1,34,35,NOT APPLICABLE,
S0136,22,pneumonia,Y,3,35,37,NOT APPLICABLE,
S0136,23,thrombocytopenia,Y,3,35,37,NOT APPLICABLE,
S0136,24,back_pain,N,1,36,37,NOT APPLICABLE,
S0136,25,gastroenteritis,N,1,36,37,NOT APPLICABLE,
S0136,26,dysgeusia,N,2,36,37,NOT APPLICABLE,
S0136,27,thrombocytopenia,N,2,37,38,NOT APPLICABLE,
S0136,28,neutrophil_count_decreased,N,1,37,38,NOT APPLICABLE,
S0136,29,hypercholesterolemia,N,2,38,39,NOT APPLICABLE,
S0136,30,vomiting,N,2,45,46,NOT APPLICABLE,
S0136,31,bone_pain,N,2,46,47,NOT APPLICABLE,
S0136,32,hypertriglyceridemia,N,1,48,49,NOT APPLICABLE,
S0137,1,hypertension_variable,N,2,36,37,hold,DM034
S0137,2,hypercholesterolemia,N,2,38,39,NOT APPLICABLE,
S0137,3,thrombocytopenia,N,2,194,197,hold,DM011
S0137,4,rash/desquamation,N,1,206,207,NOT APPLICABLE,
S0137,5,neuralgia,N,2,221,225,NOT APPLICABLE,
S0137,6,neutrophil_count_decreased,N,1,263,264,NOT APPLICABLE,
S0137,7,hypertension,N,2,293,294,hold,DM034
S0138,1,rash/desquamation,N,1,13,14,NOT APPLICABLE,
S0138,2,upper_respiratory_infections,N,1,29,30,NOT APPLICABLE,
S0138,3,neuralgia,N,2,113,114,NOT APPLICABLE,
S0138,4,thrombocytopenia,N,2,123,124,hold,DM011
S0138,5,neuropathy-sensory,N,1,123,124,NOT APPLICABLE,
S0138,6,hypertension_variable,N,1,144,145,hold,DM034
S0138,7,sensory_neuropathy,N,1,155,156,NOT APPLICABLE,
S0138,8,neutrophil_count_decreased,N,1,251,253,NOT APPLICABLE,
S0138,9,hypercholesterolemia,N,1,256,257,NOT APPLICABLE,
S0139,1,spasm,N,2,15,16,NOT APPLICABLE,
S0139,2,upper_respiratory_infections,Y,3,17,19,hold,DM028
S0139,3,weight_loss,N,2,23,29,NOT APPLICABLE,
S0139,4,dizziness,N,1,26,29,NOT APPLICABLE,
S0139,5,nausea,N,2,36,37,NOT APPLICABLE,
S0139,6,vomiting,N,1,51,57,NOT APPLICABLE,
S0139,7,acute renal failure,N,2,56,57,NOT APPLICABLE,
S0139,8,diarrhea,N,1,75,76,NOT APPLICABLE,
S0139,9,hyperglycemia,N,1,108,113,NOT APPLICABLE,
S0139,10,fatigue,Y,3,108,114,NOT APPLICABLE,
S0139,11,pain,N,1,117,118,NOT APPLICABLE,
S0139,12,hypertension_variable,N,2,127,128,hold,DM034
S0139,13,hypocalcemia,N,2,128,129,NOT APPLICABLE,
S0139,14,fever,N,2,132,133,NOT APPLICABLE,
S0139,15,neutropenia,N,1,133,134,NOT APPLICABLE,
S0139,16,neutrophil_count_decreased,N,2,142,143,NOT APPLICABLE,
S0139,17,anemia,N,1,151,152,NOT APPLICABLE,
S0139,18,peripheral_edema,N,2,151,152,NOT APPLICABLE,
S0140,1,hypokalemia,N,1,6,7,NOT APPLICABLE,
S0140,2,neuropathic_pain,N,1,82,85,NOT APPLICABLE,
S0140,3,diarrhea,N,2,91,92,NOT APPLICABLE,
S0140,4,hypocalcemia,N,1,153,154,NOT APPLICABLE,
S0140,5,neuropathy-motor,N,1,157,158,NOT APPLICABLE,
S0140,6,peripheral_edema,N,1,181,182,NOT APPLICABLE,
S0140,7,spasm,N,2,183,184,NOT APPLICABLE,
S0140,8,constipation,N,2,224,225,NOT APPLICABLE,
S0140,9,gastroenteritis,N,2,246,253,NOT APPLICABLE,
S0140,10,nausea,N,1,249,253,NOT APPLICABLE,
S0140,11,sleeplessness,N,1,271,272,NOT APPLICABLE,
S0140,12,hypertension_variable,N,2,282,283,hold,DM034
S0140,13,blurred_vision,N,1,366,393,NOT APPLICABLE,
S0141,1,peripheral_nervous_system_diseases,N,1,9,10,NOT APPLICABLE,
S0141,2,hypertension,N,2,69,70,hold,DM034
S0141,3,thrombocytopenia,N,1,119,120,hold,DM011
S0141,4,neuralgia,N,1,128,129,NOT APPLICABLE,
S0141,5,decrease_in_appetite,N,1,162,169,NOT APPLICABLE,
S0141,6,dyspepsia,N,1,203,204,NOT APPLICABLE,
S0141,7,hypercholesterolemia,N,2,226,227,NOT APPLICABLE,
S0141,8,neutrophil_count_decreased,N,1,238,239,NOT APPLICABLE,
S0141,9,rash/desquamation,N,1,342,365,NOT APPLICABLE,
S0141,10,hypertension_variable,N,2,358,365,NOT APPLICABLE,
S0142,1,pain_in_limb,N,1,11,12,NOT APPLICABLE,
S0142,2,leukopenia,N,1,25,29,NOT APPLICABLE,
S0142,3,fever,N,2,43,44,NOT APPLICABLE,
S0142,4,hypoalbuminemia,N,1,58,59,NOT APPLICABLE,
S0142,5,hyperglycemia,N,2,67,68,NOT APPLICABLE,
S0142,6,hypertension adverse events,N,1,76,77,hold,DM034
S0142,7,hypokalemia,N,2,100,101,NOT APPLICABLE,
S0142,8,anemia,N,1,113,114,NOT APPLICABLE,
S0142,9,blurred_vision,N,2,118,119,NOT APPLICABLE,
S0142,10,constipation,N,1,159,160,NOT APPLICABLE,
S0142,11,hypertension adverse events,N,2,165,169,hold,DM034
S0142,12,hypertension,N,1,168,169,hold,DM034
S0142,13,peripheral_edema,N,1,171,172,NOT APPLICABLE,
S0142,14,dizziness,N,2,179,180,NOT APPLICABLE,
S0142,15,hypocalcemia,N,2,180,181,NOT APPLICABLE,
S0142,16,neutropenia,N,2,187,188,NOT APPLICABLE,
S0142,17,neutrophil_count_decreased,N,2,192,197,NOT APPLICABLE,
S0142,18,thrombocytopenia,Y,3,196,198,hold,DM011
S0142,19,nausea,N,2,239,240,NOT APPLICABLE,
S0142,20,rash_erythematous_macules_or_papules,N,1,262,263,NOT APPLICABLE,
S0142,21,vomiting,N,1,286,287,NOT APPLICABLE,
S0142,22,hypertension,N,1,334,337,hold,DM034
S0142,23,upper_respiratory_infections,N,2,353,365,NOT APPLICABLE,
S0143,1,nausea,N,2,6,7,NOT APPLICABLE,
S0143,2,blurred_vision,N,2,12,13,NOT APPLICABLE,
S0143,3,peripheral_nervous_system_diseases,N,2,15,16,NOT APPLICABLE,
S0143,4,bone_pain,N,1,28,29,NOT APPLICABLE,
S0143,5,neuralgia,N,1,31,32,NOT APPLICABLE,
S0143,6,pain_in_limb,N,2,33,34,NOT APPLICABLE,
S0143,7,spasm,N,2,37,38,NOT APPLICABLE,
S0143,8,constipation,N,1,46,47,NOT APPLICABLE,
S0143,9,dyspepsia,N,2,47,48,NOT APPLICABLE,
S0143,10,back_pain,N,1,51,57,NOT APPLICABLE,
S0143,11,hypercholesterolemia,N,2,58,59,NOT APPLICABLE,
S0143,12,rash/desquamation,N,2,64,65,NOT APPLICABLE,
S0143,13,headache,N,2,71,72,NOT APPLICABLE,
S0143,14,neutrophil_count_decreased,N,2,77,78,NOT APPLICABLE,
S0143,15,upper_respiratory_infections,Y,3,122,124,NOT APPLICABLE,
S0143,16,anemia,N,2,124,125,NOT APPLICABLE,
S0143,17,hypertension_variable,N,2,128,129,NOT APPLICABLE,
S0143,18,thrombocytopenia,N,1,143,144,NOT APPLICABLE,
S0144,1,neuralgia,N,1,72,73,NOT APPLICABLE,
S0144,2,neutrophil_count_decreased,N,2,73,74,NOT APPLICABLE,
S0144,3,bone_pain,N,1,85,86,NOT APPLICABLE,
S0144,4,nausea,N,1,89,90,NOT APPLICABLE,
S0144,5,thrombocytopenia,N,1,90,91,hold,DM011
S0144,6,rash/desquamation,N,2,97,98,NOT APPLICABLE,
S0144,7,dyspepsia,N,2,114,115,NOT APPLICABLE,
S0144,8,non_cardiac_chest_pain,N,2,116,117,NOT APPLICABLE,
S0144,9,constipation,N,1,132,133,NOT APPLICABLE,
S0144,10,decrease_in_appetite,N,1,133,134,NOT APPLICABLE,
S0144,11,pain_in_limb,N,1,140,141,NOT APPLICABLE,
S0144,12,vomiting,N,2,152,153,NOT APPLICABLE,
S0144,13,respiratory_tract_infections,Y,3,160,162,hold,DM028
S0144,14,sleeplessness,N,2,167,169,NOT APPLICABLE,
S0144,15,hypoalbuminemia,N,2,170,171,NOT APPLICABLE,
S0144,16,hypertension adverse events,N,1,172,173,hold,DM034
S0144,17,hypertension_variable,N,2,202,203,hold,DM034
S0144,18,hypercholesterolemia,N,2,203,204,NOT APPLICABLE,
S0144,19,sensory_neuropathy,N,2,206,207,hold,DM030
S0144,20,peripheral_nervous_system_diseases,N,2,257,258,NOT APPLICABLE,
S0144,21,hypertension,N,2,257,258,hold,DM034
S0144,22,spasm,N,2,259,260,NOT APPLICABLE,
S0144,23,anorexia,N,1,333,337,NOT APPLICABLE,
S0144,24,hypertension,N,1,350,365,NOT APPLICABLE,
S0145,1,fatigue,N,2,52,57,NOT APPLICABLE,
S0145,2,hypocalcemia,N,1,57,58,NOT APPLICABLE,
S0145,3,weight_loss,N,2,67,68,NOT APPLICABLE,
S0145,4,hypokalemia,N,1,81,85,NOT APPLICABLE,
S0145,5,anemia,N,2,96,97,NOT APPLICABLE,
S0145,6,pain,N,2,166,169,NOT APPLICABLE,
S0145,7,blurred_vision,N,1,172,173,NOT APPLICABLE,
S0145,8,spasm,N,1,182,183,NOT APPLICABLE,
S0145,9,hypertension adverse events,N,2,190,197,hold,DM034
S0145,10,hypoalbuminemia,N,2,247,253,NOT APPLICABLE,
S0145,11,hyperglycemia,N,1,297,298,NOT APPLICABLE,
S0145,12,hypertension adverse events,N,1,317,318,hold,DM034
S0145,13,neutrophil_count_decreased,N,1,345,365,NOT APPLICABLE,
S0146,1,hypertension adverse events,N,2,34,35,hold,DM034
S0146,2,nausea,N,1,35,36,NOT APPLICABLE,
S0146,3,hypocalcemia,N,2,47,48,NOT APPLICABLE,
S0146,4,blurred_vision,N,1,55,57,NOT APPLICABLE,
S0146,5,gastroenteritis,N,2,67,68,NOT APPLICABLE,
S0146,6,leukopenia,N,2,99,100,NOT APPLICABLE,
S0146,7,hypertension adverse events,N,1,100,101,hold,DM034
S0146,8,influenza,N,2,110,113,NOT APPLICABLE,
S0146,9,peripheral_edema,N,1,113,114,NOT APPLICABLE,
S0146,10,anemia,N,2,141,142,NOT APPLICABLE,
S0146,11,rash_erythematous_macules_or_papules,N,1,169,170,NOT APPLICABLE,
S0146,12,hyperglycemia,N,2,177,178,NOT APPLICABLE,
S0146,13,diarrhea,N,2,197,198,NOT APPLICABLE,
S0146,14,spasm,N,1,201,202,NOT APPLICABLE,
S0146,15,coughing,N,1,219,225,NOT APPLICABLE,
S0146,16,cataract,N,1,233,234,NOT APPLICABLE,
S0146,17,constipation,N,1,251,253,NOT APPLICABLE,
S0146,18,neuropathy-motor,N,1,271,272,NOT APPLICABLE,
S0146,19,pain_in_limb,N,1,276,281,NOT APPLICABLE,
S0146,20,acute renal failure,N,2,312,313,NOT APPLICABLE,
S0146,21,hypertension adverse events,N,2,321,322,hold,DM034
S0146,22,acute renal failure,N,2,324,325,NOT APPLICABLE,
S0146,23,neuropathic_pain,N,2,326,327,NOT APPLICABLE,
S0146,24,hypertension,N,1,363,365,NOT APPLICABLE,
S0147,1,acute renal failure,N,1,32,33,NOT APPLICABLE,
S0147,2,nausea,N,1,41,42,NOT APPLICABLE,
S0147,3,pain_in_limb,N,2,74,75,NOT APPLICABLE,
S0147,4,peripheral_edema,N,1,210,211,NOT APPLICABLE,
S0147,5,hypocalcemia,N,2,223,225,NOT APPLICABLE,
S0147,6,diarrhea,N,1,225,226,NOT APPLICABLE,
S0147,7,hypertension adverse events,N,2,240,241,hold,DM034
S0147,8,hypertension adverse events,N,2,252,253,hold,DM034
S0147,9,neutrophil_count_decreased,N,1,280,281,NOT APPLICABLE,
S0147,10,hypertension adverse events,N,1,295,296,hold,DM034
S0147,11,blurred_vision,N,2,298,299,NOT APPLICABLE,
S0147,12,anemia,N,1,334,337,NOT APPLICABLE,
S0148,1,neuropathy-motor,N,1,27,29,NOT APPLICABLE,
S0148,2,diarrhea,N,1,35,36,NOT APPLICABLE,
S0148,3,neutrophil_count_decreased,N,2,66,67,NOT APPLICABLE,
S0148,4,sleeplessness,N,1,135,141,NOT APPLICABLE,
S0148,5,anemia,N,1,139,141,NOT APPLICABLE,
S0148,6,pain_in_limb,N,1,154,155,NOT APPLICABLE,
S0148,7,spasm,N,1,159,160,NOT APPLICABLE,
S0148,8,weight_loss,N,1,161,162,NOT APPLICABLE,
S0148,9,hypoalbuminemia,N,2,201,202,NOT APPLICABLE,
S0148,10,decreased_platelet_count,N,2,208,209,hold,DM011
S0148,11,constipation,N,2,213,214,NOT APPLICABLE,
S0148,12,pain,N,2,219,225,NOT APPLICABLE,
S0148,13,hypertension adverse events,N,1,224,225,hold,DM034
S0148,14,rash/desquamation,N,1,231,232,NOT APPLICABLE,
S0148,15,thrombocytopenia,Y,3,239,241,hold,DM011
S0148,16,cardiac failure events,N,1,255,256,NOT APPLICABLE,
S0148,17,neuropathy-sensory,N,1,273,274,NOT APPLICABLE,
S0148,18,dry_skin,N,1,278,281,NOT APPLICABLE,
S0148,19,dizziness,N,2,336,337,NOT APPLICABLE,
S0148,20,respiratory_tract_infections,N,1,351,365,NOT APPLICABLE,
S0148,21,hypocalcemia,N,2,351,365,NOT APPLICABLE,
S0149,1,thrombosis/thrombus/embolism,N,2,8,9,NOT APPLICABLE,
S0149,2,thrombocytopenia,Y,3,17,19,hold,DM011
S0149,3,bone_pain,N,2,25,29,NOT APPLICABLE,
S0149,4,back_pain,N,1,31,32,NOT APPLICABLE,
S0149,5,nausea,N,2,48,49,NOT APPLICABLE,
S0149,6,neuropathy:_sensory,N,1,54,57,NOT APPLICABLE,
S0149,7,respiratory_tract_infections,Y,3,59,61,hold,DM028
S0149,8,dyspepsia,N,1,64,65,NOT APPLICABLE,
S0149,9,"potassium,_serum-low_(hypokalemia)",N,1,64,65,NOT APPLICABLE,
S0149,10,sensory_neuropathy,N,1,74,75,NOT APPLICABLE,
S0149,11,pain_in_limb,N,2,79,85,NOT APPLICABLE,
S0149,12,accidental_overdose,Y,3,81,86,NOT APPLICABLE,
S0149,13,peripheral_nervous_system_diseases,N,1,91,92,NOT APPLICABLE,
S0149,14,neutrophil_count_decreased,N,2,96,97,NOT APPLICABLE,
S0149,15,rash/desquamation,N,2,96,97,NOT APPLICABLE,
S0149,16,vomiting,N,1,100,101,NOT APPLICABLE,
S0149,17,diarrhea,N,2,119,120,NOT APPLICABLE,
S0149,18,hypercholesterolemia,N,2,133,134,NOT APPLICABLE,
S0149,19,anemia,N,2,145,146,NOT APPLICABLE,
S0149,20,decrease_in_appetite,N,1,145,146,NOT APPLICABLE,
S0149,21,asthenia,N,1,154,155,NOT APPLICABLE,
S0149,22,dizziness,N,1,173,174,NOT APPLICABLE,
S0149,23,neutropenia,N,2,176,177,NOT APPLICABLE,
S0149,24,pneumonia,Y,3,192,198,NOT APPLICABLE,
S0149,25,platelets,N,1,196,197,hold,DM011
S0149,26,neuropathy-sensory,N,2,197,198,hold,DM030
S0149,27,blurred_vision,N,1,203,204,NOT APPLICABLE,
S0149,28,hypertension,N,1,212,213,hold,DM034
S0149,29,coughing,N,1,228,229,NOT APPLICABLE,
S0149,30,hypertension,N,2,233,234,hold,DM034
S0149,31,spasm,N,1,247,253,NOT APPLICABLE,
S0149,32,nasopharyngitis,N,1,253,254,NOT APPLICABLE,
S0149,33,cardiac_failure_secondary_to_chest_deformity,Y,3,260,262,NOT APPLICABLE,
S0149,34,dry_skin,N,2,269,270,NOT APPLICABLE,
S0149,35,hypertension_variable,N,1,278,281,hold,DM034
S0149,36,hypertriglyceridemia,N,2,279,281,NOT APPLICABLE,
S0149,37,respiratory_tract_infections,N,2,290,291,NOT APPLICABLE,
S0149,38,upper_respiratory_infections,Y,3,292,294,hold,DM028
S0149,39,non_cardiac_chest_pain,N,2,297,298,NOT APPLICABLE,
S0149,40,leukopenia,N,2,299,300,NOT APPLICABLE,
S0149,41,lower_respiratory_tract_infection,Y,3,315,317,hold,DM028
S0149,42,anorexia,N,2,353,365,NOT APPLICABLE,
S0149,43,constipation,N,1,354,365,NOT APPLICABLE,
S0149,44,neuralgia,N,1,356,365,NOT APPLICABLE,
S0149,45,upper_respiratory_infections,N,2,358,365,NOT APPLICABLE,
S0149,46,hypoalbuminemia,N,1,362,365,NOT APPLICABLE,
S0149,47,thrombosis/thrombus/embolism,Y,3,365,421,NOT APPLICABLE,
S0149,48,thrombocytopenia,N,1,366,393,NOT APPLICABLE,
S0150,1,diarrhea,N,2,21,22,NOT APPLICABLE,
S0150,2,dizziness,N,1,22,29,NOT APPLICABLE,
S0150,3,respiratory_tract_infections,N,1,26,29,NOT APPLICABLE,
S0150,4,neutropenia,N,2,118,119,NOT APPLICABLE,
S0150,5,thrombocytopenia,Y,3,118,120,hold,DM011
S0150,6,leukopenia,N,2,123,124,NOT APPLICABLE,
S0150,7,hypoalbuminemia,N,1,193,197,NOT APPLICABLE,
S0150,8,nausea,N,1,248,253,NOT APPLICABLE,
S0150,9,constipation,N,2,265,266,NOT APPLICABLE,
S0150,10,blurred_vision,N,2,286,287,NOT APPLICABLE,
S0150,11,peripheral_edema,N,1,288,289,NOT APPLICABLE,
S0150,12,pain,N,2,318,319,NOT APPLICABLE,
S0150,13,pain_in_limb,N,1,322,323,NOT APPLICABLE,
S0150,14,hypocalcemia,N,2,344,365,NOT APPLICABLE,
S0150,15,vomiting,N,1,360,365,NOT APPLICABLE,
S0151,1,thrombocytopenia,N,1,6,7,hold,DM011
S0151,2,hypercholesterolemia,N,1,19,20,NOT APPLICABLE,
S0151,3,sensory_neuropathy,N,1,59,60,NOT APPLICABLE,
S0151,4,cataract,N,2,85,86,NOT APPLICABLE,
S0151,5,rash/desquamation,N,1,120,121,NOT APPLICABLE,
S0151,6,neuropathy-sensory,N,2,158,159,hold,DM030
S0151,7,decrease_in_appetite,N,2,192,197,NOT APPLICABLE,
S0151,8,hypertension_variable,N,1,195,197,hold,DM034
S0151,9,lower_respiratory_tract_infection,Y,3,201,203,hold,DM028
S0151,10,diarrhea,N,1,207,208,NOT APPLICABLE,
S0151,11,back_pain,N,2,222,225,NOT APPLICABLE,
S0151,12,dyspepsia,N,1,241,242,NOT APPLICABLE,
S0151,13,dyspnea,N,1,242,243,hold,DM032
S0151,14,leukopenia,N,1,243,244,NOT APPLICABLE,
S0151,15,pain_in_limb,N,2,259,260,NOT APPLICABLE,
S0151,16,neuralgia,N,2,263,264,NOT APPLICABLE,
S0151,17,asthenia,N,2,267,268,NOT APPLICABLE,
S0151,18,neutrophil_count_decreased,N,2,269,270,NOT APPLICABLE,
S0151,19,peripheral_nervous_system_diseases,N,2,293,294,NOT APPLICABLE,
S0151,20,thrombosis/thrombus/embolism,Y,3,327,329,NOT APPLICABLE,
S0152,1,decrease_in_appetite,N,2,7,8,NOT APPLICABLE,
S0152,2,sensory_neuropathy,N,2,14,15,hold,DM030
S0152,3,pain_in_limb,N,1,16,17,NOT APPLICABLE,
S0152,4,lower_respiratory_tract_infection,Y,3,43,45,hold,DM028
S0152,5,vomiting,N,1,63,64,NOT APPLICABLE,
S0152,6,neuropathy-sensory,N,2,80,85,hold,DM030
S0152,7,hypertension_variable,N,2,110,113,hold,DM034
S0152,8,peripheral_nervous_system_diseases,N,1,128,129,NOT APPLICABLE,
S0152,9,neutrophil_count_decreased,N,1,132,133,NOT APPLICABLE,
S0152,10,rash/desquamation,N,1,160,161,NOT APPLICABLE,
S0152,11,hypertriglyceridemia,N,1,165,169,NOT APPLICABLE,
S0152,12,neuralgia,N,1,182,183,NOT APPLICABLE,
S0152,13,hypercholesterolemia,N,2,199,200,NOT APPLICABLE,
S0152,14,anemia,N,2,201,202,NOT APPLICABLE,
S0152,15,thrombocytopenia,N,1,219,225,NOT APPLICABLE,
S0152,16,bone_pain,N,2,220,225,NOT APPLICABLE,
S0153,1,hypercholesterolemia,N,2,26,29,NOT APPLICABLE,
S0153,2,upper_respiratory_infections,Y,3,53,58,hold,DM028
S0153,3,hypertension_variable,N,1,61,62,hold,DM034
S0153,4,neutrophil_count_decreased,N,2,94,95,NOT APPLICABLE,
S0153,5,lower_respiratory_tract_infection,Y,3,122,124,hold,DM028
S0153,6,bone_pain,N,1,136,141,NOT APPLICABLE,
S0153,7,neuropathy-sensory,N,2,137,141,hold,DM030
S0153,8,pain_in_limb,N,2,157,158,NOT APPLICABLE,
S0153,9,back_pain,N,2,166,169,NOT APPLICABLE,
S0153,10,dizziness,N,2,181,182,NOT APPLICABLE,
S0153,11,peripheral_nervous_system_diseases,N,2,205,206,NOT APPLICABLE,
S0153,12,neuralgia,N,2,223,225,NOT APPLICABLE,
S0153,13,sensory_neuropathy,N,2,225,226,hold,DM030
S0153,14,dry_skin,N,2,249,253,NOT APPLICABLE,
S0153,15,gastroenteritis,N,1,251,253,NOT APPLICABLE,
S0153,16,vomiting,N,2,271,272,NOT APPLICABLE,
S0153,17,rash/desquamation,N,2,288,289,NOT APPLICABLE,
S0153,18,constipation,N,2,306,309,NOT APPLICABLE,
S0153,19,decrease_in_appetite,N,2,313,314,NOT APPLICABLE,
S0153,20,rash_erythematous_macules_or_papules,N,2,316,317,NOT APPLICABLE,
S0153,21,hypoalbuminemia,N,2,334,337,NOT APPLICABLE,
S0153,22,thrombocytopenia,N,1,347,365,NOT APPLICABLE,
S0153,23,anorexia,N,2,351,365,NOT APPLICABLE,
S0153,24,hypertension,N,2,351,365,NOT APPLICABLE,
S0154,1,blurred_vision,N,1,22,29,NOT APPLICABLE,
S0154,2,decrease_in_appetite,N,2,30,31,NOT APPLICABLE,
S0154,3,pain_in_limb,N,2,73,74,NOT APPLICABLE,
S0154,4,dehydration,N,2,85,86,NOT APPLICABLE,
S0154,5,hyperglycemia,N,2,118,119,NOT APPLICABLE,
S0154,6,spasm,N,2,123,124,NOT APPLICABLE,
S0154,7,weight_loss,N,1,134,141,NOT APPLICABLE,
S0154,8,sleeplessness,N,2,136,141,NOT APPLICABLE,
S0154,9,upper_respiratory_infections,N,1,159,160,NOT APPLICABLE,
S0154,10,cataract,N,1,170,171,NOT APPLICABLE,
S0154,11,anemia,N,2,180,181,NOT APPLICABLE,
S0154,12,upper_respiratory_infections,Y,3,234,236,hold,DM028
S0154,13,leukopenia,N,1,255,256,NOT APPLICABLE,
S0154,14,vomiting,N,1,269,270,NOT APPLICABLE,
S0154,15,dizziness,N,1,337,365,NOT APPLICABLE,
S0154,16,rash_erythematous_macules_or_papules,N,1,337,365,NOT APPLICABLE,
S0154,17,gastroenteritis,N,2,337,365,NOT APPLICABLE,
S0154,18,hypertension adverse events,N,2,338,365,NOT APPLICABLE,
S0154,19,fatigue,N,2,339,365,NOT APPLICABLE,
S0155,1,sleeplessness,N,1,19,20,NOT APPLICABLE,
S0155,2,respiratory_tract_infections,N,1,36,37,NOT APPLICABLE,
S0155,3,acute renal failure,N,2,71,72,NOT APPLICABLE,
S0155,4,fatigue,N,2,94,95,NOT APPLICABLE,
S0155,5,dry_skin,N,2,107,113,NOT APPLICABLE,
S0155,6,hyperglycemia,N,2,109,113,NOT APPLICABLE,
S0155,7,blurred_vision,N,1,145,146,NOT APPLICABLE,
S0155,8,neutrophil_count_decreased,N,2,153,154,NOT APPLICABLE,
S0155,9,upper_respiratory_infections,Y,3,193,198,hold,DM028
S0155,10,peripheral_edema,N,1,202,203,NOT APPLICABLE,
S0155,11,hypertension adverse events,N,1,236,237,hold,DM034
S0155,12,hypertension adverse events,N,1,257,258,hold,DM034
S0155,13,anemia,N,1,292,293,NOT APPLICABLE,
S0155,14,pain_in_limb,N,1,296,297,NOT APPLICABLE,
S0155,15,hypocalcemia,N,2,297,298,NOT APPLICABLE,
S0155,16,diarrhea,N,1,298,299,NOT APPLICABLE,
S0155,17,spasm,N,1,303,309,NOT APPLICABLE,
S0155,18,nausea,N,2,341,365,NOT APPLICABLE,
S0156,1,dry_skin,N,1,1,2,NOT APPLICABLE,
S0156,2,neutrophil_count_decreased,N,1,20,21,NOT APPLICABLE,
S0156,3,hypertriglyceridemia,N,2,37,38,NOT APPLICABLE,
S0156,4,sensory_neuropathy,N,2,43,44,hold,DM030
S0156,5,hypercholesterolemia,N,1,47,48,NOT APPLICABLE,
S0156,6,peripheral_nervous_system_diseases,N,2,55,57,NOT APPLICABLE,
S0156,7,vomiting,N,1,97,98,NOT APPLICABLE,
S0156,8,neuralgia,N,2,97,98,NOT APPLICABLE,
S0156,9,hypertension_variable,N,1,99,100,hold,DM034
S0156,10,decrease_in_appetite,N,2,122,123,NOT APPLICABLE,
S0156,11,neuropathy-sensory,N,2,173,174,hold,DM030
S0156,12,rash/desquamation,N,1,184,185,NOT APPLICABLE,
S0156,13,dyspepsia,N,2,212,213,NOT APPLICABLE,
S0156,14,thrombocytopenia,N,1,259,260,hold,DM011
S0156,15,"potassium,_serum-low_(hypokalemia)",N,1,272,273,NOT APPLICABLE,
S0157,1,back_pain,N,2,15,16,NOT APPLICABLE,
S0157,2,hypercholesterolemia,N,2,31,32,NOT APPLICABLE,
S0157,3,decrease_in_appetite,N,1,128,129,NOT APPLICABLE,
S0157,4,peripheral_nervous_system_diseases,N,1,215,216,NOT APPLICABLE,
S0157,5,rash/desquamation,N,2,245,246,NOT APPLICABLE,
S0157,6,neutrophil_count_decreased,N,1,253,254,NOT APPLICABLE,
S0157,7,vomiting,N,1,288,289,NOT APPLICABLE,
S0157,8,dizziness,N,1,294,295,NOT APPLICABLE,
S0157,9,hypertension_variable,N,1,329,330,hold,DM034
S0157,10,thrombocytopenia,N,1,347,365,NOT APPLICABLE,
S0157,11,neuralgia,N,1,347,365,NOT APPLICABLE,
S0158,1,dyspepsia,N,1,42,43,NOT APPLICABLE,
S0158,2,upper_respiratory_infections,N,2,47,48,NOT APPLICABLE,
S0158,3,hypercholesterolemia,N,1,58,59,NOT APPLICABLE,
S0158,4,hypertension_variable,N,1,103,104,hold,DM034
S0158,5,thrombosis/thrombus/embolism,N,2,117,118,NOT APPLICABLE,
S0158,6,neuralgia,N,1,128,129,NOT APPLICABLE,
S0158,7,dizziness,N,1,178,179,NOT APPLICABLE,
S0158,8,decrease_in_appetite,N,1,185,186,NOT APPLICABLE,
S0158,9,hypertriglyceridemia,N,1,202,203,NOT APPLICABLE,
S0158,10,neutrophil_count_decreased,N,1,203,204,NOT APPLICABLE,
S0158,11,back_pain,N,2,212,213,NOT APPLICABLE,
S0158,12,spasm,N,2,236,237,NOT APPLICABLE,
S0158,13,thrombocytopenia,N,1,265,266,hold,DM011
S0158,14,rash/desquamation,N,2,266,267,NOT APPLICABLE,
S0158,15,neuropathy-sensory,N,2,321,322,hold,DM030
S0158,16,leukopenia,N,1,347,365,NOT APPLICABLE,
S0159,1,hypertension_variable,N,1,2,3,hold,DM034
S0159,2,dyspepsia,N,2,2,3,NOT APPLICABLE,
S0159,3,hypercholesterolemia,N,2,13,14,NOT APPLICABLE,
S0159,4,neutrophil_count_decreased,N,1,16,17,NOT APPLICABLE,
S0159,5,peripheral_nervous_system_diseases,N,1,43,44,NOT APPLICABLE,
S0159,6,rash/desquamation,N,2,45,46,NOT APPLICABLE,
S0159,7,neuralgia,N,2,57,58,NOT APPLICABLE,
S0159,8,decrease_in_appetite,N,2,67,68,NOT APPLICABLE,
S0159,9,back_pain,N,1,73,74,NOT APPLICABLE,
S0159,10,thrombocytopenia,N,1,78,85,NOT APPLICABLE,
S0160,1,neutrophil_count_decreased,N,1,13,14,NOT APPLICABLE,
S0160,2,hypocalcemia,N,2,15,16,NOT APPLICABLE,
S0160,3,hyperglycemia,N,1,27,29,NOT APPLICABLE,
S0160,4,decrease_in_appetite,N,2,30,31,NOT APPLICABLE,
S0160,5,hypertension_variable,N,1,56,57,hold,DM034
S0160,6,neuropathy-sensory,N,1,95,96,NOT APPLICABLE,
S0160,7,bone_pain,N,1,130,131,NOT APPLICABLE,
S0160,8,blurred_vision,N,2,173,174,NOT APPLICABLE,
S0160,9,leukopenia,N,2,185,186,NOT APPLICABLE,
S0160,10,dizziness,N,1,195,197,NOT APPLICABLE,
S0160,11,sleeplessness,N,2,220,225,NOT APPLICABLE,
S0160,12,gastroenteritis,N,2,261,262,NOT APPLICABLE,
S0160,13,cataract,N,2,313,314,NOT APPLICABLE,
S0160,14,hypoalbuminemia,N,1,320,321,NOT APPLICABLE,
S0161,1,vomiting,N,1,32,33,NOT APPLICABLE,
S0161,2,neutrophil_count_decreased,N,2,36,37,NOT APPLICABLE,
S0161,3,decrease_in_appetite,N,1,53,57,NOT APPLICABLE,
S0161,4,pain,N,1,71,72,NOT APPLICABLE,
S0161,5,sleeplessness,N,1,82,85,NOT APPLICABLE,
S0161,6,sensory_neuropathy,N,2,86,87,hold,DM030
S0161,7,peripheral_edema,N,2,100,101,NOT APPLICABLE,
S0161,8,peripheral_nervous_system_diseases,N,2,105,106,NOT APPLICABLE,
S0161,9,hyperglycemia,N,2,108,113,NOT APPLICABLE,
S0161,10,cardiac failure events,N,1,112,113,NOT APPLICABLE,
S0161,11,pain_in_limb,N,2,123,124,NOT APPLICABLE,
S0161,12,diarrhea,N,1,149,150,NOT APPLICABLE,
S0161,13,bone_pain,N,1,155,156,NOT APPLICABLE,
S0161,14,spasm,N,1,161,162,NOT APPLICABLE,
S0161,15,anorexia,N,1,167,169,NOT APPLICABLE,
S0161,16,hypocalcemia,N,2,203,204,NOT APPLICABLE,
S0162,1,rash/desquamation,N,1,9,10,NOT APPLICABLE,
S0162,2,bone_pain,N,1,15,16,NOT APPLICABLE,
S0162,3,hypertension_variable,N,1,28,29,hold,DM034
S0162,4,neuropathy-sensory,N,2,114,115,hold,DM030
S0162,5,pain_in_limb,N,1,140,141,NOT APPLICABLE,
S0162,6,respiratory_tract_infections,Y,3,154,156,hold,DM028
S0162,7,neuralgia,N,1,160,161,NOT APPLICABLE,
S0162,8,sensory_neuropathy,N,1,186,187,NOT APPLICABLE,
S0162,9,hypercholesterolemia,N,2,196,197,NOT APPLICABLE,
S0162,10,neutrophil_count_decreased,N,1,218,225,NOT APPLICABLE,
S0162,11,thrombosis/thrombus/embolism,N,1,284,285,NOT APPLICABLE,
S0162,12,thrombocytopenia,N,2,286,287,hold,DM011
S0162,13,dyspepsia,N,1,310,311,NOT APPLICABLE,
S0162,14,neutropenia,N,2,365,393,NOT APPLICABLE,
S0163,1,asthenia,N,2,2,3,NOT APPLICABLE,
S0163,2,sensory_neuropathy,N,1,21,22,NOT APPLICABLE,
S0163,3,bone_pain,N,1,22,29,NOT APPLICABLE,
S0163,4,nausea,N,2,29,30,NOT APPLICABLE,
S0163,5,influenza,N,1,37,38,NOT APPLICABLE,
S0163,6,dizziness,N,1,42,43,NOT APPLICABLE,
S0163,7,neuralgia,N,1,48,49,NOT APPLICABLE,
S0163,8,sepsis,Y,3,53,58,NOT APPLICABLE,
S0163,9,neutrophil_count_decreased,N,2,54,57,NOT APPLICABLE,
S0163,10,leukopenia,N,1,55,57,NOT APPLICABLE,
S0163,11,respiratory_tract_infections,N,1,67,68,NOT APPLICABLE,
S0163,12,decrease_in_appetite,N,2,77,78,NOT APPLICABLE,
S0163,13,thrombocytopenia,Y,3,90,92,hold,DM011
S0163,14,anorexia,N,1,122,123,NOT APPLICABLE,
S0163,15,dry_skin,N,2,143,144,NOT APPLICABLE,
S0163,16,peripheral_edema,N,2,156,157,NOT APPLICABLE,
S0163,17,pain_in_limb,N,1,169,170,NOT APPLICABLE,
S0163,18,sleeplessness,N,2,184,185,NOT APPLICABLE,
S0163,19,nasopharyngitis,N,2,187,188,NOT APPLICABLE,
S0163,20,hypoalbuminemia,N,1,201,202,NOT APPLICABLE,
S0163,21,back_pain,N,1,206,207,NOT APPLICABLE,
S0163,22,pneumonia,N,2,220,225,NOT APPLICABLE,
S0163,23,hypertension_variable,N,1,222,225,hold,DM034
S0163,24,urinary_tract_infection,Y,3,229,231,hold,DM028
S0163,25,spasm,N,1,232,233,NOT APPLICABLE,
S0163,26,peripheral_nervous_system_diseases,N,2,237,238,NOT APPLICABLE,
S0163,27,hypertension adverse events,N,1,252,253,hold,DM034
S0163,28,anemia,N,2,254,255,NOT APPLICABLE,
S0163,29,upper_respiratory_infections,N,2,255,256,NOT APPLICABLE,
S0163,30,gastroenteritis,N,2,279,281,NOT APPLICABLE,
S0163,31,neuropathy-sensory,N,1,298,299,NOT APPLICABLE,
S0163,32,thrombocytopenia,N,1,304,309,hold,DM011
S0163,33,hypercholesterolemia,N,1,304,309,NOT APPLICABLE,
S0163,34,respiratory_tract_infections,Y,3,307,310,hold,DM028
S0163,35,diarrhea,N,2,325,326,NOT APPLICABLE,
S0163,36,constipation,N,2,325,326,NOT APPLICABLE,
S0163,37,dyspepsia,N,2,349,365,NOT APPLICABLE,
S0163,38,rash/desquamation,N,2,349,365,NOT APPLICABLE,
S0164,1,constipation,N,1,17,18,NOT APPLICABLE,
S0164,2,sleeplessness,N,2,20,21,NOT APPLICABLE,
S0164,3,anemia,N,1,28,29,NOT APPLICABLE,
S0164,4,hypocalcemia,N,1,51,57,NOT APPLICABLE,
S0164,5,vomiting,N,1,97,98,NOT APPLICABLE,
S0164,6,fatigue,N,2,121,122,NOT APPLICABLE,
S0164,7,peripheral_edema,N,1,162,169,NOT APPLICABLE,
S0164,8,hyperglycemia,N,1,163,169,NOT APPLICABLE,
S0164,9,asthenia,N,1,169,170,NOT APPLICABLE,
S0164,10,nausea,N,2,174,175,NOT APPLICABLE,
S0164,11,pain,N,1,183,184,NOT APPLICABLE,
S0164,12,pain_in_limb,N,2,200,201,NOT APPLICABLE,
S0164,13,influenza,N,2,219,225,NOT APPLICABLE,
S0164,14,dry_skin,N,1,221,225,NOT APPLICABLE,
S0164,15,cataract,N,1,301,302,NOT APPLICABLE,
S0164,16,hemoglobin_normal_12_16_gm,N,1,303,309,NOT APPLICABLE,
S0164,17,diarrhea,N,1,312,313,NOT APPLICABLE,
S0164,18,neuropathic_pain,N,2,330,337,NOT APPLICABLE,
S0164,19,pneumonia,Y,3,333,365,NOT APPLICABLE,
S0164,20,neutrophil_count_decreased,N,1,336,337,NOT APPLICABLE,
S0165,1,hypokalemia,N,2,28,29,NOT APPLICABLE,
S0165,2,hypoalbuminemia,N,1,29,30,NOT APPLICABLE,
S0165,3,constipation,N,2,127,128,NOT APPLICABLE,
S0165,4,hypocalcemia,N,2,129,130,NOT APPLICABLE,
S0165,5,blurred_vision,N,2,156,157,NOT APPLICABLE,
S0165,6,dehydration,N,1,166,169,NOT APPLICABLE,
S0165,7,dry_skin,N,1,171,172,NOT APPLICABLE,
S0165,8,hyperglycemia,N,1,173,174,NOT APPLICABLE,
S0165,9,dizziness,N,2,181,182,NOT APPLICABLE,
S0165,10,pneumonia,Y,3,197,199,NOT APPLICABLE,
S0165,11,vomiting,N,2,237,238,NOT APPLICABLE,
S0165,12,anemia,N,2,240,241,NOT APPLICABLE,
S0165,13,sleeplessness,N,2,246,253,NOT APPLICABLE,
S0165,14,weight_loss,N,2,262,263,NOT APPLICABLE,
S0165,15,neutrophil_count_decreased,N,1,273,274,NOT APPLICABLE,
S0165,16,pain,N,1,277,281,NOT APPLICABLE,
S0165,17,neuropathy-sensory,N,2,323,324,hold,DM030
S0165,18,pain_in_limb,N,2,357,365,NOT APPLICABLE,
S0166,1,hypocalcemia,N,2,20,21,NOT APPLICABLE,
S0166,2,dyspepsia,N,2,23,29,NOT APPLICABLE,
S0166,3,hypercholesterolemia,N,1,28,29,NOT APPLICABLE,
S0166,4,thrombocytopenia,N,2,48,49,hold,DM011
S0166,5,decrease_in_appetite,N,1,50,57,NOT APPLICABLE,
S0166,6,peripheral_nervous_system_diseases,N,1,74,75,NOT APPLICABLE,
S0166,7,respiratory_tract_infections,Y,3,82,86,hold,DM028
S0166,8,influenza,N,2,105,106,NOT APPLICABLE,
S0166,9,spasm,N,1,120,121,NOT APPLICABLE,
S0166,10,rash/desquamation,N,2,131,132,NOT APPLICABLE,
S0166,11,hypertension_variable,N,1,139,141,hold,DM034
S0166,12,hypertension,N,1,159,160,hold,DM034
S0166,13,neuralgia,N,1,189,190,NOT APPLICABLE,
S0166,14,neutrophil_count_decreased,N,1,195,197,NOT APPLICABLE,
S0167,1,fatigue,N,1,1,2,NOT APPLICABLE,
S0167,2,peripheral_edema,N,1,4,5,NOT APPLICABLE,
S0167,3,nausea,N,2,5,6,NOT APPLICABLE,
S0167,4,sensory_neuropathy,N,1,49,50,NOT APPLICABLE,
S0167,5,infectious_lung_disorder,Y,3,70,72,NOT APPLICABLE,
S0167,6,diarrhea,N,1,96,97,NOT APPLICABLE,
S0167,7,neutrophil_count_decreased,N,1,120,121,NOT APPLICABLE,
S0167,8,thrombocytopenia,Y,3,156,158,hold,DM011
S0167,9,sleeplessness,N,1,192,197,NOT APPLICABLE,
S0167,10,hypocalcemia,N,1,266,267,NOT APPLICABLE,
S0167,11,constipation,N,1,269,270,NOT APPLICABLE,
S0167,12,pain_in_limb,N,2,294,295,NOT APPLICABLE,
S0167,13,upper_respiratory_infections,N,1,296,297,NOT APPLICABLE,
S0167,14,neutropenia,N,2,305,309,NOT APPLICABLE,
S0167,15,influenza,N,1,323,324,NOT APPLICABLE,
S0167,16,neuropathy-sensory,N,2,331,337,hold,DM030
S0167,17,pneumonia,Y,3,339,393,NOT APPLICABLE,
S0167,18,decrease_in_appetite,N,2,352,365,NOT APPLICABLE,
S0167,19,vomiting,N,1,362,365,NOT APPLICABLE,
S0168,1,peripheral_nervous_system_diseases,N,2,17,18,NOT APPLICABLE,
S0168,2,neutrophil_count_decreased,N,2,23,29,NOT APPLICABLE,
S0168,3,hypertriglyceridemia,N,2,37,38,NOT APPLICABLE,
S0168,4,dyspnea,N,1,63,64,hold,DM032
S0168,5,diarrhea,N,2,64,65,NOT APPLICABLE,
S0168,6,neuralgia,N,2,65,66,NOT APPLICABLE,
S0168,7,neuropathy-sensory,N,2,72,73,hold,DM030
S0168,8,hypercholesterolemia,N,1,82,85,NOT APPLICABLE,
S0168,9,thrombocytopenia,N,2,129,130,hold,DM011
S0168,10,bone_pain,N,2,165,169,NOT APPLICABLE,
S0168,11,decrease_in_appetite,N,1,176,177,NOT APPLICABLE,
S0168,12,rash/desquamation,N,2,208,209,NOT APPLICABLE,
S0168,13,back_pain,N,2,216,217,NOT APPLICABLE,
S0168,14,hypertension_variable,N,1,278,281,hold,DM034
S0168,15,anemia,N,1,302,309,NOT APPLICABLE,
S0168,16,pain_in_limb,N,2,312,313,NOT APPLICABLE,
S0169,1,abdominal_pain,N,1,3,4,NOT APPLICABLE,
S0169,2,neuralgia,N,2,3,4,NOT APPLICABLE,
S0169,3,hypertension_variable,N,2,4,5,hold,DM034
S0169,4,lower_respiratory_tract_infection,N,2,5,6,NOT APPLICABLE,
S0169,5,"potassium,_serum-low_(hypokalemia)",N,1,6,7,NOT APPLICABLE,
S0169,6,dyspepsia,N,2,7,8,NOT APPLICABLE,
S0169,7,sensory_neuropathy,N,1,9,10,NOT APPLICABLE,
S0169,8,fever,N,1,9,10,NOT APPLICABLE,
S0169,9,weight_loss,N,2,10,11,NOT APPLICABLE,
S0169,10,upper_respiratory_infections,Y,3,11,13,hold,DM028
S0169,11,sleeplessness,N,2,12,13,NOT APPLICABLE,
S0169,12,asthenia,N,2,12,13,NOT APPLICABLE,
S0169,13,rash/desquamation,N,2,12,13,NOT APPLICABLE,
S0169,14,falls,N,2,13,14,NOT APPLICABLE,
S0169,15,diarrhea,N,1,14,15,NOT APPLICABLE,
S0169,16,peripheral_nervous_system_diseases,N,1,14,15,NOT APPLICABLE,
S0169,17,vomiting,N,2,15,16,NOT APPLICABLE,
S0169,18,non_cardiac_chest_pain,N,2,16,17,NOT APPLICABLE,
S0169,19,neutropenia,N,1,17,18,NOT APPLICABLE,
S0169,20,decreased_platelet_count,N,2,18,19,hold,DM011
S0169,21,upper_respiratory_infections,N,1,20,21,NOT APPLICABLE,
S0169,22,leukopenia,N,2,22,29,NOT APPLICABLE,
S0169,23,cataract,N,2,22,29,NOT APPLICABLE,
S0169,24,accidental_overdose,Y,3,22,30,NOT APPLICABLE,
S0169,25,dyspnea,Y,3,22,30,hold,DM032
S0169,26,dizziness,N,2,26,29,NOT APPLICABLE,
S0169,27,platelets,N,1,26,29,hold,DM011
S0169,28,edema:_limb,N,1,26,29,NOT APPLICABLE,
S0169,29,hyperglycemia,Y,3,27,30,NOT APPLICABLE,
S0169,30,hypoalbuminemia,N,2,29,30,NOT APPLICABLE,
S0169,31,dyspnea,N,2,30,31,hold,DM032
S0169,32,anorexia,N,1,31,32,NOT APPLICABLE,
S0169,33,neuropathy-sensory,N,2,32,33,hold,DM030
S0169,34,pneumonia,N,2,33,34,NOT APPLICABLE,
S0169,35,thrombosis/thrombus/embolism,Y,3,33,35,NOT APPLICABLE,
S0169,36,hypertension adverse events,N,2,34,35,hold,DM034
S0169,37,influenza,N,2,35,36,NOT APPLICABLE,
S0169,38,hypercholesterolemia,N,1,36,37,NOT APPLICABLE,
S0169,39,hypotension,Y,3,36,38,NOT APPLICABLE,
S0169,40,hypertension,N,2,36,37,hold,DM034
S0169,41,gastroenteritis,N,1,37,38,NOT APPLICABLE,
S0169,42,respiratory_tract_infections,Y,3,38,40,hold,DM028
S0169,43,neuropathy-motor,N,2,39,40,hold,DM030
S0169,44,kidney_failure_acute,Y,3,39,41,NOT APPLICABLE,
S0169,45,kidney_failure,Y,3,39,41,NOT APPLICABLE,
S0169,46,fatigue,N,2,41,42,NOT APPLICABLE,
S0169,47,dry_skin,N,2,41,42,NOT APPLICABLE,
S0169,48,bronchitis,Y,3,41,43,NOT APPLICABLE,
S0169,49,decrease_in_appetite,N,2,42,43,NOT APPLICABLE,
S0169,50,respiratory_tract_infections,N,1,42,43,NOT APPLICABLE,
S0169,51,neuropathy:_sensory,N,2,42,43,hold,DM030
S0169,52,rash_erythematous_macules_or_papules,N,2,46,47,NOT APPLICABLE,
S0169,53,hyponatremia,N,2,46,47,NOT APPLICABLE,
S0169,54,lower_respiratory_tract_infection,Y,3,46,48,NOT APPLICABLE,
S0169,55,pneumonia,Y,3,48,50,NOT APPLICABLE,
S0169,56,constipation,N,1,49,50,NOT APPLICABLE,
S0169,57,spasm,N,2,49,50,NOT APPLICABLE,
S0169,58,hypokalemia,N,2,50,57,NOT APPLICABLE,
S0169,59,hyperglycemia,N,1,51,57,NOT APPLICABLE,
S0169,60,thrombocytopenia,N,2,52,57,NOT APPLICABLE,
S0169,61,thrombocytopenia,Y,3,52,58,NOT APPLICABLE,
S0169,62,hypertriglyceridemia,N,2,53,57,NOT APPLICABLE,
S0169,63,pain,N,2,54,57,NOT APPLICABLE,
S0169,64,dehydration,Y,3,55,58,NOT APPLICABLE,
S0169,65,headache,N,2,60,61,NOT APPLICABLE,
S0169,66,peripheral_edema,N,2,63,64,NOT APPLICABLE,
S0169,67,hypocalcemia,N,1,63,64,NOT APPLICABLE,
S0169,68,coughing,N,2,64,65,NOT APPLICABLE,
S0169,69,neuropathic_pain,N,2,65,66,NOT APPLICABLE,
S0169,70,neutrophil_count_decreased,N,2,68,69,NOT APPLICABLE,
S0169,71,pulmonary_embolism,Y,3,68,70,NOT APPLICABLE,
S0169,72,pain_in_limb,N,1,69,70,NOT APPLICABLE,
S0169,73,hypertension,N,1,71,72,NOT APPLICABLE,
S0169,74,back_pain,N,1,72,73,NOT APPLICABLE,
S0169,75,thrombosis/thrombus/embolism,N,1,72,73,NOT APPLICABLE,
S0169,76,bone_pain,N,1,72,73,NOT APPLICABLE,
S0169,77,anemia,N,2,73,74,NOT APPLICABLE,
S0169,78,nasopharyngitis,N,2,73,74,NOT APPLICABLE,
S0170,1,fever,Y,3,34,36,NOT APPLICABLE,
S0170,2,respiratory_tract_infections,Y,3,34,36,hold,DM028
S0170,3,thrombocytopenia,N,2,42,43,hold,DM011
S0170,4,neutrophil_count_decreased,N,2,105,106,NOT APPLICABLE,
S0170,5,hypertension,N,1,116,117,hold,DM034
S0170,6,rash/desquamation,N,2,132,133,NOT APPLICABLE,
S0170,7,back_pain,N,2,143,144,NOT APPLICABLE,
S0170,8,bone_pain,N,1,192,197,NOT APPLICABLE,
S0170,9,hypertension_variable,N,1,213,214,hold,DM034
S0170,10,hypercholesterolemia,N,1,214,215,NOT APPLICABLE,
S0170,11,anemia,N,2,238,239,NOT APPLICABLE,
S0170,12,headache,N,1,252,253,NOT APPLICABLE,
S0170,13,neuralgia,N,2,257,258,NOT APPLICABLE,
S0170,14,leukopenia,N,2,288,289,NOT APPLICABLE,
S0170,15,peripheral_nervous_system_diseases,N,1,290,291,NOT APPLICABLE,
S0170,16,dysgeusia,N,2,331,337,NOT APPLICABLE,
S0171,1,fatigue,N,2,6,7,NOT APPLICABLE,
S0171,2,dizziness,N,1,35,36,NOT APPLICABLE,
S0171,3,vomiting,N,2,51,57,NOT APPLICABLE,
S0171,4,thrombocytopenia,Y,3,51,58,hold,DM011
S0171,5,pain,N,1,103,104,NOT APPLICABLE,
S0171,6,blurred_vision,N,2,157,158,NOT APPLICABLE,
S0171,7,pneumonia,Y,3,183,185,NOT APPLICABLE,
S0171,8,nasopharyngitis,N,1,186,187,NOT APPLICABLE,
S0171,9,nausea,N,1,189,190,NOT APPLICABLE,
S0171,10,diarrhea,Y,3,203,205,no_modification,DM040
S0171,11,diarrhea,N,2,206,207,NOT APPLICABLE,
S0171,12,hypertension adverse events,N,1,235,236,hold,DM034
S0171,13,pain_in_limb,N,2,236,237,NOT APPLICABLE,
S0171,14,hyperglycemia,N,1,267,268,NOT APPLICABLE,
S0171,15,anorexia,N,1,304,309,NOT APPLICABLE,
S0171,16,neutrophil_count_decreased,N,2,356,365,NOT APPLICABLE,
S0171,17,upper_respiratory_infections,N,1,357,365,NOT APPLICABLE,
S0172,1,neutrophil_count_decreased,N,2,28,29,NOT APPLICABLE,
S0172,2,decrease_in_appetite,N,1,46,47,NOT APPLICABLE,
S0172,3,hypertension_variable,N,1,83,85,hold,DM034
S0172,4,dizziness,N,1,134,141,NOT APPLICABLE,
S0172,5,sensory_neuropathy,N,1,141,142,NOT APPLICABLE,
S0172,6,diarrhea,N,2,142,143,NOT APPLICABLE,
S0172,7,rash/desquamation,N,2,153,154,NOT APPLICABLE,
S0172,8,hypercholesterolemia,N,2,158,159,NOT APPLICABLE,
S0172,9,nausea,N,2,175,176,NOT APPLICABLE,
S0172,10,headache,N,1,214,215,NOT APPLICABLE,
S0172,11,bone_pain,N,1,251,253,NOT APPLICABLE,
S0172,12,dyspepsia,N,2,252,253,NOT APPLICABLE,
S0172,13,thrombocytopenia,N,1,256,257,hold,DM011
S0172,14,neuralgia,N,1,259,260,NOT APPLICABLE,
S0172,15,influenza,N,2,292,293,NOT APPLICABLE,
S0173,1,neuralgia,N,2,36,37,NOT APPLICABLE,
S0173,2,hypercholesterolemia,N,2,58,59,NOT APPLICABLE,
S0173,3,hypertension_variable,N,1,103,104,hold,DM034
S0173,4,back_pain,N,1,231,232,NOT APPLICABLE,
S0173,5,rash/desquamation,N,1,266,267,NOT APPLICABLE,
S0173,6,gastroenteritis,N,1,276,281,NOT APPLICABLE,
S0173,7,neutrophil_count_decreased,N,2,286,287,NOT APPLICABLE,
S0173,8,dyspepsia,N,1,349,365,NOT APPLICABLE,
S0173,9,thrombocytopenia,N,2,350,365,NOT APPLICABLE,
S0174,1,sensory_neuropathy,N,1,9,10,NOT APPLICABLE,
S0174,2,hypercholesterolemia,N,1,17,18,NOT APPLICABLE,
S0174,3,neuralgia,N,2,22,29,NOT APPLICABLE,
S0174,4,anemia,N,1,40,41,NOT APPLICABLE,
S0174,5,thrombocytopenia,N,2,59,60,hold,DM011
S0174,6,hypertension_variable,N,1,68,69,hold,DM034
S0174,7,back_pain,N,2,80,85,NOT APPLICABLE,
S0174,8,decrease_in_appetite,N,2,84,85,NOT APPLICABLE,
S0174,9,dizziness,N,2,112,113,NOT APPLICABLE,
S0174,10,rash/desquamation,N,2,121,122,NOT APPLICABLE,
S0174,11,peripheral_nervous_system_diseases,N,1,141,142,NOT APPLICABLE,
S0174,12,neutrophil_count_decreased,N,2,158,159,NOT APPLICABLE,
S0175,1,hypercholesterolemia,N,2,182,183,NOT APPLICABLE,
S0175,2,thrombocytopenia,N,1,205,206,hold,DM011
S0175,3,hypertension_variable,N,2,252,253,hold,DM034
S0175,4,neuralgia,N,2,284,285,NOT APPLICABLE,
S0175,5,rash/desquamation,N,1,326,327,NOT APPLICABLE,
S0175,6,neutrophil_count_decreased,N,1,343,365,NOT APPLICABLE,
S0176,1,dizziness,N,2,12,13,NOT APPLICABLE,
S0176,2,constipation,N,1,24,29,NOT APPLICABLE,
S0176,3,hypertension adverse events,N,1,32,33,hold,DM034
S0176,4,anemia,N,2,66,67,NOT APPLICABLE,
S0176,5,respiratory_tract_infections,N,2,119,120,NOT APPLICABLE,
S0176,6,neuropathic_pain,N,2,128,129,NOT APPLICABLE,
S0176,7,hypoalbuminemia,N,2,128,129,NOT APPLICABLE,
S0176,8,hypocalcemia,N,1,146,147,NOT APPLICABLE,
S0176,9,nausea,N,1,166,169,NOT APPLICABLE,
S0176,10,diarrhea,N,2,200,201,NOT APPLICABLE,
S0176,11,thrombocytopenia,Y,3,208,210,hold,DM011
S0176,12,fatigue,N,2,220,225,NOT APPLICABLE,
S0176,13,neutropenia,N,2,233,234,NOT APPLICABLE,
S0176,14,hyperglycemia,N,2,248,253,NOT APPLICABLE,
S0176,15,dysgeusia,N,1,273,274,NOT APPLICABLE,
S0176,16,sleeplessness,N,1,288,289,NOT APPLICABLE,
S0176,17,blurred_vision,N,2,311,312,NOT APPLICABLE,
S0177,1,hypokalemia,N,2,6,7,NOT APPLICABLE,
S0177,2,pneumonia,Y,3,7,9,NOT APPLICABLE,
S0177,3,hypertension,N,1,10,11,hold,DM034
S0177,4,leukopenia,N,2,40,41,NOT APPLICABLE,
S0177,5,nausea,N,2,47,48,NOT APPLICABLE,
S0177,6,hypocalcemia,N,2,57,58,NOT APPLICABLE,
S0177,7,pain_in_limb,N,1,67,68,NOT APPLICABLE,
S0177,8,anemia,N,2,70,71,NOT APPLICABLE,
S0177,9,hyperglycemia,N,2,104,105,NOT APPLICABLE,
S0177,10,pain,N,1,118,119,NOT APPLICABLE,
S0177,11,spasm,N,2,228,229,NOT APPLICABLE,
S0177,12,musculoskeletal_chest_pain,N,1,238,239,NOT APPLICABLE,
S0177,13,hypertension adverse events,N,2,288,289,hold,DM034
S0177,14,hypoalbuminemia,N,1,341,365,NOT APPLICABLE,
S0177,15,hypertension adverse events,N,2,352,365,NOT APPLICABLE,
S0178,1,hypokalemia,N,2,13,14,NOT APPLICABLE,
S0178,2,vomiting,N,2,44,45,NOT APPLICABLE,
S0178,3,upper_respiratory_infections,Y,3,65,67,hold,DM028
S0178,4,decrease_in_appetite,N,2,133,134,NOT APPLICABLE,
S0178,5,pain,N,1,167,169,NOT APPLICABLE,
S0178,6,neutrophil_count_decreased,N,1,197,198,NOT APPLICABLE,
S0178,7,acute renal failure adverse events,N,2,235,236,NOT APPLICABLE,
S0178,8,nausea,N,2,245,246,NOT APPLICABLE,
S0178,9,bone_pain,N,2,303,309,NOT APPLICABLE,
S0178,10,pain_in_limb,N,1,312,313,NOT APPLICABLE,
S0178,11,hypocalcemia,N,1,345,365,NOT APPLICABLE,
S0179,1,peripheral_nervous_system_diseases,N,1,54,57,NOT APPLICABLE,
S0179,2,anemia,N,2,62,63,NOT APPLICABLE,
S0179,3,neuralgia,N,2,70,71,NOT APPLICABLE,
S0179,4,rash/desquamation,N,1,83,85,NOT APPLICABLE,
S0179,5,thrombocytopenia,N,1,92,93,hold,DM011
S0179,6,dyspepsia,N,1,187,188,NOT APPLICABLE,
S0179,7,hypercholesterolemia,N,1,195,197,NOT APPLICABLE,
S0179,8,decrease_in_appetite,N,2,241,242,NOT APPLICABLE,
S0179,9,hypertension_variable,N,2,348,365,NOT APPLICABLE,
S0179,10,neutrophil_count_decreased,N,1,358,365,NOT APPLICABLE,
S0179,11,sensory_neuropathy,N,2,363,365,NOT APPLICABLE,
S0180,1,anorexia,N,1,13,14,NOT APPLICABLE,
S0180,2,neuralgia,N,1,23,29,NOT APPLICABLE,
S0180,3,vomiting,N,1,108,113,NOT APPLICABLE,
S0180,4,hypertension adverse events,N,2,109,113,hold,DM034
S0180,5,peripheral_nervous_system_diseases,N,1,112,113,NOT APPLICABLE,
S0180,6,pain_in_limb,N,1,123,124,NOT APPLICABLE,
S0180,7,cardiac_failure_secondary_to_chest_deformity,Y,3,125,127,NOT APPLICABLE,
S0180,8,diarrhea,N,2,128,129,NOT APPLICABLE,
S0180,9,decrease_in_appetite,N,2,148,149,NOT APPLICABLE,
S0180,10,thrombocytopenia,N,1,153,154,hold,DM011
S0180,11,respiratory_tract_infections,Y,3,170,172,hold,DM028
S0180,12,non_cardiac_chest_pain,N,1,175,176,NOT APPLICABLE,
S0180,13,sleeplessness,N,1,184,185,NOT APPLICABLE,
S0180,14,neutrophil_count_decreased,N,1,202,203,NOT APPLICABLE,
S0180,15,back_pain,N,2,216,217,NOT APPLICABLE,
S0180,16,dyspepsia,N,2,241,242,NOT APPLICABLE,
S0180,17,bone_pain,N,2,265,266,NOT APPLICABLE,
S0180,18,hypertension_variable,N,1,278,281,hold,DM034
S0180,19,neuropathy-sensory,N,2,320,321,hold,DM030
S0180,20,rash/desquamation,N,1,321,322,NOT APPLICABLE,
S0180,21,anemia,N,1,341,365,NOT APPLICABLE,
S0180,22,dizziness,N,2,351,365,NOT APPLICABLE,
S0180,23,hypercholesterolemia,N,2,359,365,NOT APPLICABLE,
S0181,1,neutrophil_count_decreased,N,2,4,5,NOT APPLICABLE,
S0181,2,rash/desquamation,N,2,98,99,NOT APPLICABLE,
S0181,3,thrombocytopenia,N,1,114,115,hold,DM011
S0181,4,leukopenia,N,1,205,206,NOT APPLICABLE,
S0181,5,neuralgia,N,1,211,212,NOT APPLICABLE,
S0181,6,hypercholesterolemia,N,1,213,214,NOT APPLICABLE,
S0181,7,pain_in_limb,N,1,239,240,NOT APPLICABLE,
S0182,1,spasm,N,1,23,29,NOT APPLICABLE,
S0182,2,diarrhea,N,1,27,29,NOT APPLICABLE,
S0182,3,neutrophil_count_decreased,N,1,43,44,NOT APPLICABLE,
S0182,4,blurred_vision,N,1,45,46,NOT APPLICABLE,
S0182,5,pain_in_limb,N,1,60,61,NOT APPLICABLE,
S0182,6,hypertension adverse events,N,2,66,67,hold,DM034
S0182,7,decreased_platelet_count,N,1,69,70,hold,DM011
S0182,8,upper_respiratory_infections,N,1,86,87,NOT APPLICABLE,
S0182,9,diarrhea,Y,3,88,90,no_modification,DM040
S0182,10,pneumonia,N,1,143,144,NOT APPLICABLE,
S0182,11,hypertension adverse events,N,1,157,158,hold,DM034
S0182,12,dyspnea,N,2,166,169,hold,DM032
S0182,13,nausea,N,1,174,175,NOT APPLICABLE,
S0182,14,anemia,N,1,221,225,NOT APPLICABLE,
S0182,15,non_cardiac_chest_pain,N,2,242,243,NOT APPLICABLE,
S0182,16,vomiting,N,2,274,281,NOT APPLICABLE,
S0182,17,hyperglycemia,N,1,286,287,NOT APPLICABLE,
S0182,18,neuropathic_pain,N,2,286,287,NOT APPLICABLE,
S0182,19,dizziness,N,1,313,314,NOT APPLICABLE,
S0182,20,neuropathy-sensory,N,2,331,337,hold,DM030
S0182,21,fever,N,2,332,337,NOT APPLICABLE,
S0182,22,acute renal failure adverse events,N,1,335,337,NOT APPLICABLE,
S0183,1,anemia,N,2,33,34,NOT APPLICABLE,
S0183,2,diarrhea,N,1,69,70,NOT APPLICABLE,
S0183,3,rash/desquamation,N,1,84,85,NOT APPLICABLE,
S0183,4,pain_in_limb,N,2,97,98,NOT APPLICABLE,
S0183,5,hypertension adverse events,N,1,108,113,hold,DM034
S0183,6,sleeplessness,N,1,109,113,NOT APPLICABLE,
S0183,7,neutropenia,N,1,127,128,NOT APPLICABLE,
S0183,8,blurred_vision,N,2,169,170,NOT APPLICABLE,
S0183,9,spasm,N,1,231,232,NOT APPLICABLE,
S0183,10,sensory_neuropathy,N,1,259,260,NOT APPLICABLE,
S0183,11,weight_loss,N,2,289,290,NOT APPLICABLE,
S0183,12,hypocalcemia,N,1,301,302,NOT APPLICABLE,
S0184,1,fatigue,N,1,35,36,NOT APPLICABLE,
S0184,2,pain_in_limb,N,2,92,93,NOT APPLICABLE,
S0184,3,hypertension adverse events,N,2,120,121,hold,DM034
S0184,4,acute renal failure,N,1,148,149,NOT APPLICABLE,
S0184,5,neutropenia,N,2,197,198,NOT APPLICABLE,
S0184,6,hypertension_variable,N,1,212,213,hold,DM034
S0184,7,fatigue,Y,3,243,245,NOT APPLICABLE,
S0184,8,sleeplessness,N,2,256,257,NOT APPLICABLE,
S0184,9,respiratory_tract_infections,N,1,260,261,NOT APPLICABLE,
S0184,10,weight_loss,N,2,280,281,NOT APPLICABLE,
S0184,11,thrombocytopenia,Y,3,284,286,hold,DM011
S0184,12,vomiting,N,1,324,325,NOT APPLICABLE,
S0184,13,anemia,N,2,325,326,NOT APPLICABLE,
S0184,14,blurred_vision,N,2,337,365,NOT APPLICABLE,
S0185,1,rash/desquamation,N,1,44,45,NOT APPLICABLE,
S0185,2,neuralgia,N,2,108,113,NOT APPLICABLE,
S0185,3,hypercholesterolemia,N,1,146,147,NOT APPLICABLE,
S0185,4,hypertension_variable,N,2,148,149,hold,DM034
S0185,5,neutrophil_count_decreased,N,2,192,197,NOT APPLICABLE,
S0185,6,peripheral_nervous_system_diseases,N,1,195,197,NOT APPLICABLE,
S0185,7,thrombocytopenia,N,1,300,301,hold,DM011
S0186,1,spasm,N,2,27,29,NOT APPLICABLE,
S0186,2,acute renal failure adverse events,N,2,133,134,NOT APPLICABLE,
S0186,3,thrombosis/thrombus/embolism,N,1,144,145,NOT APPLICABLE,
S0186,4,neuropathy-sensory,N,2,161,162,hold,DM030
S0186,5,asthenia,N,1,189,190,NOT APPLICABLE,
S0186,6,anemia,N,2,223,225,NOT APPLICABLE,
S0186,7,hypertension adverse events,N,2,256,257,hold,DM034
S0186,8,dry_skin,N,1,263,264,NOT APPLICABLE,
S0186,9,fatigue,N,1,293,294,NOT APPLICABLE,
S0186,10,neuropathic_pain,N,1,298,299,NOT APPLICABLE,
S0186,11,pain_in_limb,N,1,304,309,NOT APPLICABLE,
S0186,12,hypokalemia,N,1,315,316,NOT APPLICABLE,
S0186,13,hypocalcemia,N,2,322,323,NOT APPLICABLE,
S0186,14,neutropenia,N,1,338,365,NOT APPLICABLE,
S0186,15,sepsis,Y,3,360,393,NOT APPLICABLE,
S0187,1,hypokalemia,N,1,12,13,NOT APPLICABLE,
S0187,2,anemia,N,1,75,76,NOT APPLICABLE,
S0187,3,hypocalcemia,N,2,88,89,NOT APPLICABLE,
S0187,4,neutropenia,N,2,111,113,NOT APPLICABLE,
S0187,5,hyperglycemia,N,1,125,126,NOT APPLICABLE,
S0187,6,pain_in_limb,N,1,145,146,NOT APPLICABLE,
S0187,7,respiratory_tract_infections,N,2,155,156,NOT APPLICABLE,
S0187,8,vomiting,N,2,156,157,NOT APPLICABLE,
S0187,9,acute renal failure adverse events,N,2,174,175,NOT APPLICABLE,
S0187,10,peripheral_edema,N,2,212,213,NOT APPLICABLE,
S0187,11,dry_skin,N,1,292,293,NOT APPLICABLE,
S0187,12,leukopenia,N,1,301,302,NOT APPLICABLE,
S0187,13,hemoglobin_normal_12_16_gm,N,2,303,309,NOT APPLICABLE,
S0187,14,neutrophil_count_decreased,N,1,330,337,NOT APPLICABLE,
S0188,1,diarrhea,N,2,6,7,NOT APPLICABLE,
S0188,2,asthenia,N,1,45,46,NOT APPLICABLE,
S0188,3,anemia,N,1,59,60,NOT APPLICABLE,
S0188,4,hypocalcemia,N,1,76,77,NOT APPLICABLE,
S0188,5,thrombocytopenia,Y,3,84,86,hold,DM011
S0188,6,vomiting,N,1,94,95,NOT APPLICABLE,
S0188,7,spasm,N,1,98,99,NOT APPLICABLE,
S0188,8,pain_in_limb,N,1,114,115,NOT APPLICABLE,
S0188,9,upper_respiratory_infections,Y,3,115,117,hold,DM028
S0188,10,fatigue,Y,3,124,126,NOT APPLICABLE,
S0188,11,neuropathic_pain,N,2,156,157,NOT APPLICABLE,
S0188,12,neuropathy-sensory,N,1,220,225,NOT APPLICABLE,
S0188,13,blurred_vision,N,2,236,237,NOT APPLICABLE,
S0188,14,hypoalbuminemia,N,2,249,253,NOT APPLICABLE,
S0188,15,nausea,N,2,257,258,NOT APPLICABLE,
S0188,16,weight_loss,N,2,262,263,NOT APPLICABLE,
S0188,17,acute renal failure,N,1,262,263,NOT APPLICABLE,
S0188,18,leukopenia,N,2,336,337,NOT APPLICABLE,
S0188,19,hypertension,N,1,336,337,hold,DM034
S0188,20,neutropenia,N,2,343,365,NOT APPLICABLE,
S0188,21,dizziness,N,1,343,365,NOT APPLICABLE,
S0189,1,fatigue,N,1,44,45,NOT APPLICABLE,
S0189,2,neutrophil_count_decreased,N,1,46,47,NOT APPLICABLE,
S0189,3,pain_in_limb,N,2,56,57,NOT APPLICABLE,
S0189,4,constipation,N,2,77,78,NOT APPLICABLE,
S0189,5,coughing,N,1,101,102,NOT APPLICABLE,
S0189,6,respiratory_tract_infections,N,2,148,149,NOT APPLICABLE,
S0189,7,neutropenia,N,2,176,177,NOT APPLICABLE,
S0189,8,hypertension,N,2,223,225,hold,DM034
S0189,9,hypocalcemia,N,2,226,227,NOT APPLICABLE,
S0189,10,hyperglycemia,N,2,307,309,NOT APPLICABLE,
S0189,11,pain,N,1,321,322,NOT APPLICABLE,
S0189,12,vomiting,N,1,344,365,NOT APPLICABLE,
S0190,1,thrombocytopenia,N,1,10,11,hold,DM011
S0190,2,neuropathy-sensory,N,2,36,37,hold,DM030
S0190,3,sleeplessness,N,2,40,41,NOT APPLICABLE,
S0190,4,hypertension,N,1,43,44,hold,DM034
S0190,5,diarrhea,N,1,89,90,NOT APPLICABLE,
S0190,6,dizziness,N,1,120,121,NOT APPLICABLE,
S0190,7,neuropathic_pain,N,1,167,169,NOT APPLICABLE,
S0190,8,hypertension adverse events,N,1,187,188,hold,DM034
S0190,9,hypertension_variable,N,2,197,198,hold,DM034
S0190,10,fever,N,1,248,253,NOT APPLICABLE,
S0190,11,pulmonary_embolism,Y,3,249,254,hold,DM035
S0190,12,peripheral_edema,N,1,273,274,NOT APPLICABLE,
S0190,13,hypokalemia,N,2,279,281,NOT APPLICABLE,
S0190,14,hyperglycemia,N,1,292,293,NOT APPLICABLE,
S0190,15,hypoalbuminemia,N,1,296,297,NOT APPLICABLE,
S0190,16,blurred_vision,N,1,320,321,NOT APPLICABLE,
S0190,17,neutropenia,N,1,347,365,NOT APPLICABLE,
S0190,18,cataract,N,2,365,393,NOT APPLICABLE,
S0191,1,hypertension,N,1,31,32,hold,DM034
S0191,2,hypertension adverse events,N,1,74,75,hold,DM034
S0191,3,hypokalemia,N,2,98,99,NOT APPLICABLE,
S0191,4,diarrhea,N,2,118,119,NOT APPLICABLE,
S0191,5,vomiting,N,2,120,121,NOT APPLICABLE,
S0191,6,pain_in_limb,N,1,128,129,NOT APPLICABLE,
S0191,7,dizziness,N,2,181,182,NOT APPLICABLE,
S0191,8,anemia,N,1,192,197,NOT APPLICABLE,
S0191,9,peripheral_edema,N,2,216,217,NOT APPLICABLE,
S0191,10,neuropathy-sensory,N,2,228,229,hold,DM030
S0191,11,sleeplessness,N,1,242,243,NOT APPLICABLE,
S0191,12,neutrophil_count_decreased,N,1,267,268,NOT APPLICABLE,
S0191,13,hypocalcemia,N,2,278,281,NOT APPLICABLE,
S0191,14,constipation,N,2,287,288,NOT APPLICABLE,
S0191,15,nausea,N,1,297,298,NOT APPLICABLE,
S0191,16,headache,N,2,297,298,NOT APPLICABLE,
S0191,17,hyperglycemia,N,1,298,299,NOT APPLICABLE,
S0192,1,neutropenia,N,1,3,4,NOT APPLICABLE,
S0192,2,sensory_neuropathy,N,2,86,87,hold,DM030
S0192,3,blurred_vision,N,2,97,98,NOT APPLICABLE,
S0192,4,diarrhea,N,2,131,132,NOT APPLICABLE,
S0192,5,neutrophil_count_decreased,N,1,136,141,NOT APPLICABLE,
S0192,6,hypocalcemia,N,1,184,185,NOT APPLICABLE,
S0192,7,fatigue,N,2,202,203,NOT APPLICABLE,
S0192,8,hypertension adverse events,N,2,205,206,hold,DM034
S0192,9,dizziness,N,1,254,255,NOT APPLICABLE,
S0192,10,anemia,N,2,265,266,NOT APPLICABLE,
S0192,11,hyperglycemia,N,2,305,309,NOT APPLICABLE,
S0192,12,upper_respiratory_infections,N,1,308,309,NOT APPLICABLE,
S0192,13,sleeplessness,N,1,356,365,NOT APPLICABLE,
S0192,14,cataract,N,1,361,365,NOT APPLICABLE,
S0193,1,vomiting,N,1,4,5,NOT APPLICABLE,
S0193,2,leukopenia,N,2,12,13,NOT APPLICABLE,
S0193,3,hypertension_variable,N,1,12,13,hold,DM034
S0193,4,back_pain,N,2,40,41,NOT APPLICABLE,
S0193,5,lower_respiratory_tract_infection,Y,3,49,57,hold,DM028
S0193,6,cataract,N,1,66,67,NOT APPLICABLE,
S0193,7,thrombocytopenia,N,1,81,85,hold,DM011
S0193,8,dyspepsia,N,2,119,120,NOT APPLICABLE,
S0193,9,thrombosis/thrombus/embolism,Y,3,119,121,NOT APPLICABLE,
S0193,10,anorexia,N,2,124,125,NOT APPLICABLE,
S0193,11,bone_pain,N,2,128,129,NOT APPLICABLE,
S0193,12,hypocalcemia,N,2,133,134,NOT APPLICABLE,
S0193,13,acute renal failure adverse events,N,1,166,169,NOT APPLICABLE,
S0193,14,anemia,N,2,169,170,NOT APPLICABLE,
S0193,15,thrombosis/thrombus/embolism,N,2,169,170,NOT APPLICABLE,
S0193,16,peripheral_nervous_system_diseases,N,1,175,176,NOT APPLICABLE,
S0193,17,pain_in_limb,N,2,187,188,NOT APPLICABLE,
S0193,18,rash/desquamation,N,2,188,189,NOT APPLICABLE,
S0193,19,dysgeusia,N,1,188,189,NOT APPLICABLE,
S0193,20,hypercholesterolemia,N,1,211,212,NOT APPLICABLE,
S0193,21,respiratory_tract_infections,Y,3,230,232,hold,DM028
S0193,22,influenza,N,2,233,234,NOT APPLICABLE,
S0193,23,thrombocytopenia,Y,3,233,235,hold,DM011
S0193,24,neuropathy-sensory,N,2,246,253,hold,DM030
S0193,25,hypertriglyceridemia,N,1,253,254,NOT APPLICABLE,
S0193,26,sensory_neuropathy,N,2,260,261,hold,DM030
S0193,27,neutrophil_count_decreased,N,1,266,267,NOT APPLICABLE,
S0193,28,dizziness,N,2,286,287,NOT APPLICABLE,
S0193,29,neuralgia,N,2,309,310,NOT APPLICABLE,
S0193,30,decreased_platelet_count,N,2,313,314,hold,DM011
S0193,31,constipation,N,2,314,315,NOT APPLICABLE,
S0193,32,hypertension,N,1,350,365,NOT APPLICABLE,
S0193,33,"potassium,_serum-low_(hypokalemia)",N,1,354,365,NOT APPLICABLE,
S0193,34,edema:_limb,N,2,366,393,NOT APPLICABLE,
S0194,1,thrombocytopenia,N,1,21,22,hold,DM011
S0194,2,hypertension_variable,N,1,24,29,hold,DM034
S0194,3,neuralgia,N,1,66,67,NOT APPLICABLE,
S0194,4,hypercholesterolemia,N,1,73,74,NOT APPLICABLE,
S0194,5,neutrophil_count_decreased,N,2,76,77,NOT APPLICABLE,
S0194,6,sensory_neuropathy,N,2,199,200,hold,DM030
S0194,7,back_pain,N,2,209,210,NOT APPLICABLE,
S0194,8,respiratory_tract_infections,Y,3,312,314,hold,DM028
S0194,9,rash/desquamation,N,2,344,365,NOT APPLICABLE,
S0195,1,hypertension,N,1,29,30,hold,DM034
S0195,2,upper_respiratory_infections,N,1,55,57,NOT APPLICABLE,
S0195,3,influenza,N,1,112,113,NOT APPLICABLE,
S0195,4,hypocalcemia,N,1,139,141,NOT APPLICABLE,
S0195,5,anemia,N,2,141,142,NOT APPLICABLE,
S0195,6,gastroenteritis,N,2,158,159,NOT APPLICABLE,
S0195,7,nausea,N,2,166,169,NOT APPLICABLE,
S0195,8,neutropenia,N,2,188,189,NOT APPLICABLE,
S0195,9,diarrhea,N,1,206,207,NOT APPLICABLE,
S0195,10,blurred_vision,N,1,232,233,NOT APPLICABLE,
S0195,11,sensory_neuropathy,N,1,239,240,NOT APPLICABLE,
S0195,12,hypokalemia,N,1,252,253,NOT APPLICABLE,
S0195,13,hyperglycemia,N,1,289,290,NOT APPLICABLE,
S0195,14,pain_in_limb,N,2,292,293,NOT APPLICABLE,
S0195,15,weight_loss,N,2,313,314,NOT APPLICABLE,
S0195,16,respiratory_tract_infections,N,2,329,330,NOT APPLICABLE,
S0195,17,fatigue,N,1,362,365,NOT APPLICABLE,
S0195,18,hypertension adverse events,N,1,366,393,NOT APPLICABLE,
S0196,1,hypertension,N,2,56,57,hold,DM034
S0196,2,neuropathic_pain,N,1,76,77,NOT APPLICABLE,
S0196,3,neuropathy-motor,N,2,93,94,hold,DM030
S0196,4,dizziness,N,1,125,126,NOT APPLICABLE,
S0196,5,sleeplessness,N,1,144,145,NOT APPLICABLE,
S0196,6,peripheral_edema,N,2,159,160,NOT APPLICABLE,
S0196,7,hypoalbuminemia,N,1,159,160,NOT APPLICABLE,
S0196,8,upper_respiratory_infections,Y,3,159,161,hold,DM028
S0196,9,anemia,N,2,235,236,NOT APPLICABLE,
S0196,10,decreased_platelet_count,N,2,257,258,hold,DM011
S0196,11,hyperglycemia,N,2,266,267,NOT APPLICABLE,
S0196,12,hypocalcemia,N,2,289,290,NOT APPLICABLE,
S0196,13,pain_in_limb,N,2,315,316,NOT APPLICABLE,
S0196,14,constipation,N,2,320,321,NOT APPLICABLE,
S0196,15,upper_respiratory_infections,N,1,337,365,NOT APPLICABLE,
S0197,1,vomiting,N,2,10,11,NOT APPLICABLE,
S0197,2,fatigue,Y,3,93,95,NOT APPLICABLE,
S0197,3,hypocalcemia,N,2,133,134,NOT APPLICABLE,
S0197,4,fever,N,1,187,188,NOT APPLICABLE,
S0197,5,anemia,N,1,192,197,NOT APPLICABLE,
S0197,6,hypertension_variable,N,1,197,198,hold,DM034
S0197,7,hypoalbuminemia,N,1,207,208,NOT APPLICABLE,
S0197,8,dizziness,N,1,328,329,NOT APPLICABLE,
S0197,9,peripheral_edema,N,2,331,337,NOT APPLICABLE,
S0197,10,diarrhea,N,2,355,365,NOT APPLICABLE,
S0197,11,fatigue,N,1,364,365,NOT APPLICABLE,
S0198,1,cataract,N,2,12,13,NOT APPLICABLE,
S0198,2,fever,N,1,37,38,NOT APPLICABLE,
S0198,3,blurred_vision,N,1,44,45,NOT APPLICABLE,
S0198,4,hypertension_variable,N,1,46,47,hold,DM034
S0198,5,hypokalemia,N,2,73,74,NOT APPLICABLE,
S0198,6,fatigue,N,1,89,90,NOT APPLICABLE,
S0198,7,deep_vein_thrombosis,N,1,144,145,NOT APPLICABLE,
S0198,8,neuropathy-sensory,N,2,219,225,hold,DM030
S0198,9,hypoalbuminemia,N,2,281,282,NOT APPLICABLE,
S0198,10,upper_respiratory_infections,N,2,295,296,NOT APPLICABLE,
S0198,11,weight_loss,N,2,295,296,NOT APPLICABLE,
S0198,12,hypocalcemia,N,1,296,297,NOT APPLICABLE,
S0198,13,bone_pain,N,2,317,318,NOT APPLICABLE,
S0198,14,neutropenia,N,1,353,365,NOT APPLICABLE,
S0199,1,hypertension_variable,N,2,6,7,hold,DM034
S0199,2,neutrophil_count_decreased,N,1,44,45,NOT APPLICABLE,
S0199,3,hypercholesterolemia,N,2,117,118,NOT APPLICABLE,
S0199,4,neuralgia,N,1,146,147,NOT APPLICABLE,
S0199,5,anemia,N,2,152,153,NOT APPLICABLE,
S0200,1,neuropathy-motor,N,2,6,7,hold,DM030
S0200,2,hyperglycemia,N,2,37,38,NOT APPLICABLE,
S0200,3,acute renal failure,N,1,60,61,NOT APPLICABLE,
S0200,4,diarrhea,N,2,68,69,NOT APPLICABLE,
S0200,5,neutropenia,N,2,89,90,NOT APPLICABLE,
S0200,6,hypoalbuminemia,N,1,145,146,NOT APPLICABLE,
S0200,7,blurred_vision,N,1,152,153,NOT APPLICABLE,
S0200,8,hypocalcemia,N,2,162,169,NOT APPLICABLE,
S0200,9,peripheral_edema,N,2,285,286,NOT APPLICABLE,
S0201,1,hypercholesterolemia,N,2,32,33,NOT APPLICABLE,
S0201,2,hypertension,N,1,63,64,hold,DM034
S0201,3,vomiting,N,2,69,70,NOT APPLICABLE,
S0201,4,diarrhea,N,2,94,95,NOT APPLICABLE,
S0201,5,bone_pain,N,1,96,97,NOT APPLICABLE,
S0201,6,rash/desquamation,N,2,128,129,NOT APPLICABLE,
S0201,7,neuralgia,N,1,184,185,NOT APPLICABLE,
S0201,8,lower_respiratory_tract_infection,Y,3,211,213,hold,DM028
S0201,9,back_pain,N,2,225,226,NOT APPLICABLE,
S0201,10,hypertension_variable,N,2,256,257,hold,DM034
S0201,11,sensory_neuropathy,N,2,261,262,hold,DM030
S0201,12,thrombocytopenia,N,1,277,281,hold,DM011
S0201,13,anemia,N,1,294,295,NOT APPLICABLE,
S0201,14,neutrophil_count_decreased,N,2,349,365,NOT APPLICABLE,
S0202,1,thrombocytopenia,N,1,96,97,hold,DM011
S0202,2,hypertension_variable,N,1,115,116,hold,DM034
S0202,3,rash/desquamation,N,1,137,141,NOT APPLICABLE,
S0202,4,headache,N,2,213,214,NOT APPLICABLE,
S0202,5,neuralgia,N,2,248,253,NOT APPLICABLE,
S0202,6,hypercholesterolemia,N,2,339,365,NOT APPLICABLE,
S0203,1,constipation,N,1,4,5,NOT APPLICABLE,
S0203,2,dry_skin,N,2,6,7,NOT APPLICABLE,
S0203,3,thrombocytopenia,Y,3,29,31,hold,DM011
S0203,4,hyperglycemia,N,1,50,57,NOT APPLICABLE,
S0203,5,hypoalbuminemia,N,2,52,57,NOT APPLICABLE,
S0203,6,hypertension,N,2,95,96,hold,DM034
S0203,7,blurred_vision,N,1,100,101,NOT APPLICABLE,
S0203,8,pain_in_limb,N,1,107,113,NOT APPLICABLE,
S0203,9,sleeplessness,N,2,157,158,NOT APPLICABLE,
S0203,10,anemia,N,2,185,186,NOT APPLICABLE,
S0203,11,neuropathy-sensory,N,2,192,197,hold,DM030
S0203,12,vomiting,N,2,241,242,NOT APPLICABLE,
S0203,13,hypertension adverse events,N,1,250,253,hold,DM034
S0203,14,weight_loss,N,2,291,292,NOT APPLICABLE,
S0203,15,fatigue,N,2,314,315,NOT APPLICABLE,
S0203,16,hypertension adverse events,N,1,315,316,hold,DM034
S0203,17,spasm,N,2,317,318,NOT APPLICABLE,
S0203,18,hypocalcemia,N,2,354,365,NOT APPLICABLE,
S0203,19,fever,N,1,358,365,NOT APPLICABLE,
S0204,1,neutrophil_count_decreased,N,2,21,22,NOT APPLICABLE,
S0204,2,hypertension_variable,N,1,41,42,hold,DM034
S0204,3,cardiac_failure_secondary_to_chest_deformity,Y,3,73,75,NOT APPLICABLE,
S0204,4,asthenia,N,1,91,92,NOT APPLICABLE,
S0204,5,hypoalbuminemia,N,1,92,93,NOT APPLICABLE,
S0204,6,upper_respiratory_infections,N,1,105,106,NOT APPLICABLE,
S0204,7,fatigue,N,1,114,115,NOT APPLICABLE,
S0204,8,hypocalcemia,N,2,150,151,NOT APPLICABLE,
S0204,9,vomiting,N,2,155,156,NOT APPLICABLE,
S0204,10,neutropenia,N,2,157,158,NOT APPLICABLE,
S0204,11,hypokalemia,N,1,159,160,NOT APPLICABLE,
S0204,12,neuropathic_pain,N,1,173,174,NOT APPLICABLE,
S0204,13,spasm,N,2,181,182,NOT APPLICABLE,
S0204,14,cardiac failure events,N,2,188,189,NOT APPLICABLE,
S0204,15,hypertension adverse events,N,1,263,264,hold,DM034
S0204,16,rash_erythematous_macules_or_papules,N,2,267,268,NOT APPLICABLE,
S0204,17,neuropathy-sensory,N,2,280,281,hold,DM030
S0204,18,sensory_neuropathy,N,2,287,288,hold,DM030
S0205,1,weight_loss,N,2,2,3,NOT APPLICABLE,
S0205,2,hypertension adverse events,N,1,40,41,hold,DM034
S0205,3,neuropathy-sensory,N,2,49,50,hold,DM030
S0205,4,vomiting,N,2,57,58,NOT APPLICABLE,
S0205,5,neuropathic_pain,N,2,65,66,NOT APPLICABLE,
S0205,6,cardiac failure events,N,1,104,105,NOT APPLICABLE,
S0205,7,blurred_vision,N,1,116,117,NOT APPLICABLE,
S0205,8,neutropenia,N,1,128,129,NOT APPLICABLE,
S0205,9,hypocalcemia,N,2,137,141,NOT APPLICABLE,
S0205,10,hypertension adverse events,N,1,141,142,hold,DM034
S0205,11,diarrhea,N,2,143,144,NOT APPLICABLE,
S0205,12,fatigue,N,1,152,153,NOT APPLICABLE,
S0205,13,hypoalbuminemia,N,1,154,155,NOT APPLICABLE,
S0205,14,spasm,N,2,189,190,NOT APPLICABLE,
S0205,15,sleeplessness,N,1,233,234,NOT APPLICABLE,
S0205,16,hypokalemia,N,1,275,281,NOT APPLICABLE,
S0205,17,anemia,N,2,282,283,NOT APPLICABLE,
S0205,18,hypertension,N,2,296,297,NOT APPLICABLE,
S0206,1,hypoalbuminemia,N,1,6,7,NOT APPLICABLE,
S0206,2,sleeplessness,N,1,9,10,NOT APPLICABLE,
S0206,3,dry_skin,N,2,20,21,NOT APPLICABLE,
S0206,4,vomiting,N,2,34,35,NOT APPLICABLE,
S0206,5,peripheral_edema,N,1,44,45,NOT APPLICABLE,
S0206,6,fatigue,N,1,51,57,NOT APPLICABLE,
S0206,7,neuropathy-sensory,N,1,56,57,NOT APPLICABLE,
S0206,8,respiratory_tract_infections,N,2,56,57,NOT APPLICABLE,
S0206,9,hyperglycemia,N,1,64,65,NOT APPLICABLE,
S0206,10,back_pain,N,2,71,72,NOT APPLICABLE,
S0206,11,weight_loss,N,1,73,74,NOT APPLICABLE,
S0206,12,neutropenia,N,1,75,76,NOT APPLICABLE,
S0206,13,peripheral_nervous_system_diseases,N,2,87,88,NOT APPLICABLE,
S0206,14,hypertension adverse events,N,2,88,89,hold,DM034
S0206,15,acute renal failure adverse events,N,1,89,90,NOT APPLICABLE,
S0206,16,pain_in_limb,N,1,91,92,NOT APPLICABLE,
S0206,17,hypocalcemia,N,1,91,92,NOT APPLICABLE,
S0206,18,constipation,N,2,102,103,NOT APPLICABLE,
S0206,19,influenza,N,1,105,106,NOT APPLICABLE,
S0206,20,pneumonia,Y,3,114,116,NOT APPLICABLE,
S0206,21,hypertension adverse events,N,1,122,123,NOT APPLICABLE,
S0206,22,spasm,N,2,139,141,NOT APPLICABLE,
S0206,23,cardiac failure events,N,2,141,142,NOT APPLICABLE,
S0207,1,hypertension adverse events,N,2,5,6,hold,DM034
S0207,2,fatigue,N,2,26,29,NOT APPLICABLE,
S0207,3,neuropathy-sensory,N,2,34,35,hold,DM030
S0207,4,anemia,N,2,50,57,NOT APPLICABLE,
S0207,5,hypocalcemia,N,1,108,113,NOT APPLICABLE,
S0207,6,peripheral_edema,N,1,127,128,NOT APPLICABLE,
S0207,7,hypertension_variable,N,2,156,157,hold,DM034
S0207,8,hypoalbuminemia,N,1,203,204,NOT APPLICABLE,
S0207,9,hypertension adverse events,N,1,217,218,hold,DM034
S0207,10,influenza,N,2,257,258,NOT APPLICABLE,
S0207,11,hyperglycemia,N,1,292,293,NOT APPLICABLE,
S0207,12,vomiting,N,2,298,299,NOT APPLICABLE,
S0207,13,acute renal failure,N,1,299,300,NOT APPLICABLE,
S0207,14,neutrophil_count_decreased,N,2,300,301,NOT APPLICABLE,
S0207,15,accidental_overdose,Y,3,354,393,NOT APPLICABLE,
S0207,16,neutropenia,N,1,366,393,NOT APPLICABLE,
S0208,1,back_pain,N,1,4,5,NOT APPLICABLE,
S0208,2,anemia,N,1,7,8,NOT APPLICABLE,
S0208,3,non_cardiac_chest_pain,N,2,18,19,NOT APPLICABLE,
S0208,4,respiratory_tract_infections,Y,3,18,20,hold,DM028
S0208,5,diarrhea,N,2,33,34,NOT APPLICABLE,
S0208,6,spasm,N,1,36,37,NOT APPLICABLE,
S0208,7,urinary_tract_infection,Y,3,44,46,hold,DM028
S0208,8,rash/desquamation,N,1,45,46,NOT APPLICABLE,
S0208,9,dyspnea,N,1,47,48,hold,DM032
S0208,10,hypoalbuminemia,N,1,48,49,NOT APPLICABLE,
S0208,11,hypertension,N,2,53,57,hold,DM034
S0208,12,influenza,N,2,58,59,NOT APPLICABLE,
S0208,13,hypertension_variable,N,2,62,63,hold,DM034
S0208,14,neuropathy-sensory,N,1,62,63,NOT APPLICABLE,
S0208,15,nasopharyngitis,N,2,67,68,NOT APPLICABLE,
S0208,16,hypercholesterolemia,N,2,70,71,NOT APPLICABLE,
S0208,17,decrease_in_appetite,N,1,73,74,NOT APPLICABLE,
S0208,18,falls,N,1,75,76,NOT APPLICABLE,
S0208,19,thrombosis/thrombus/embolism,N,2,77,78,NOT APPLICABLE,
S0208,20,sensory_neuropathy,N,2,78,85,hold,DM030
S0208,21,upper_respiratory_infections,N,2,78,85,NOT APPLICABLE,
S0208,22,vomiting,N,2,79,85,NOT APPLICABLE,
S0208,23,rash_erythematous_macules_or_papules,N,2,80,85,NOT APPLICABLE,
S0208,24,neuralgia,N,1,85,86,NOT APPLICABLE,
S0208,25,pneumonia,Y,3,85,87,NOT APPLICABLE,
S0208,26,cardiac_failure_secondary_to_chest_deformity,Y,3,85,87,NOT APPLICABLE,
S0208,27,hypocalcemia,N,2,86,87,NOT APPLICABLE,
S0208,28,leukopenia,N,2,93,94,NOT APPLICABLE,
S0208,29,neutrophil_count_decreased,N,2,95,96,NOT APPLICABLE,
S0208,30,hypertriglyceridemia,N,1,95,96,NOT APPLICABLE,
S0208,31,thrombocytopenia,N,1,96,97,NOT APPLICABLE,
S0208,32,constipation,N,1,105,106,NOT APPLICABLE,
S0208,33,thrombosis/thrombus/embolism,Y,3,107,114,NOT APPLICABLE,
S0208,34,dry_skin,N,2,110,113,NOT APPLICABLE,
S0208,35,dyspepsia,N,1,113,114,NOT APPLICABLE,
S0208,36,bone_pain,N,2,115,116,NOT APPLICABLE,
S0209,1,cataract,N,2,3,4,NOT APPLICABLE,
S0209,2,neuralgia,N,2,38,39,NOT APPLICABLE,
S0209,3,rash/desquamation,N,1,54,57,NOT APPLICABLE,
S0209,4,hypoalbuminemia,N,1,66,67,NOT APPLICABLE,
S0209,5,anemia,N,1,96,97,NOT APPLICABLE,
S0209,6,decrease_in_appetite,N,2,98,99,NOT APPLICABLE,
S0209,7,edema:_limb,N,1,99,100,NOT APPLICABLE,
S0209,8,sleeplessness,N,2,121,122,NOT APPLICABLE,
S0209,9,lower_respiratory_tract_infection,Y,3,126,128,hold,DM028
S0209,10,neutrophil_count_decreased,N,2,162,169,NOT APPLICABLE,
S0209,11,respiratory_tract_infections,Y,3,166,170,hold,DM028
S0209,12,leukopenia,N,2,186,187,NOT APPLICABLE,
S0209,13,dyspepsia,N,1,188,189,NOT APPLICABLE,
S0209,14,hypertension_variable,N,1,213,214,hold,DM034
S0209,15,sensory_neuropathy,N,1,236,237,NOT APPLICABLE,
S0209,16,hypercholesterolemia,N,1,257,258,NOT APPLICABLE,
S0209,17,constipation,N,1,267,268,NOT APPLICABLE,
S0209,18,diarrhea,N,2,297,298,NOT APPLICABLE,
S0209,19,neuropathy-sensory,N,2,301,302,hold,DM030
S0209,20,peripheral_nervous_system_diseases,N,2,326,327,NOT APPLICABLE,
S0209,21,anorexia,N,1,327,328,NOT APPLICABLE,
S0209,22,thrombosis/thrombus/embolism,Y,3,342,393,NOT APPLICABLE,
S0209,23,thrombocytopenia,N,1,353,365,NOT APPLICABLE,
S0209,24,hypertriglyceridemia,N,1,354,365,NOT APPLICABLE,
S0209,25,vomiting,N,1,359,365,NOT APPLICABLE,
S0210,1,hypercholesterolemia,N,2,13,14,NOT APPLICABLE,
S0210,2,dyspepsia,N,2,70,71,NOT APPLICABLE,
S0210,3,"potassium,_serum-low_(hypokalemia)",N,2,87,88,NOT APPLICABLE,
S0210,4,peripheral_nervous_system_diseases,N,2,93,94,NOT APPLICABLE,
S0210,5,neutrophil_count_decreased,N,1,97,98,NOT APPLICABLE,
S0210,6,hypertension_variable,N,2,101,102,hold,DM034
S0210,7,back_pain,N,2,135,141,NOT APPLICABLE,
S0210,8,vomiting,N,1,139,141,NOT APPLICABLE,
S0210,9,constipation,N,1,153,154,NOT APPLICABLE,
S0210,10,influenza,N,1,169,170,NOT APPLICABLE,
S0210,11,diarrhea,N,2,173,174,NOT APPLICABLE,
S0210,12,leukopenia,N,2,187,188,NOT APPLICABLE,
S0210,13,thrombocytopenia,N,1,204,205,hold,DM011
S0210,14,neuropathy-sensory,N,2,227,228,hold,DM030
S0210,15,respiratory_tract_infections,Y,3,231,233,hold,DM028
S0210,16,decrease_in_appetite,N,2,251,253,NOT APPLICABLE,
S0210,17,rash/desquamation,N,2,264,265,NOT APPLICABLE,
S0210,18,anemia,N,2,286,287,NOT APPLICABLE,
S0210,19,bone_pain,N,2,286,287,NOT APPLICABLE,
S0210,20,neuralgia,N,1,289,290,NOT APPLICABLE,
S0210,21,hypertension,N,2,300,301,hold,DM034
S0210,22,sleeplessness,N,1,324,325,NOT APPLICABLE,
S0210,23,nausea,N,2,349,365,NOT APPLICABLE,
S0210,24,sensory_neuropathy,N,2,351,365,NOT APPLICABLE,
S0211,1,nasopharyngitis,N,1,4,5,NOT APPLICABLE,
S0211,2,peripheral_nervous_system_diseases,N,1,9,10,NOT APPLICABLE,
S0211,3,hypocalcemia,N,1,22,29,NOT APPLICABLE,
S0211,4,decrease_in_appetite,N,1,29,30,NOT APPLICABLE,
S0211,5,anorexia,N,2,37,38,NOT APPLICABLE,
S0211,6,vomiting,N,2,104,105,NOT APPLICABLE,
S0211,7,deep_vein_thrombosis,Y,3,105,113,NOT APPLICABLE,
S0211,8,blurred_vision,N,2,132,133,NOT APPLICABLE,
S0211,9,neuralgia,N,1,139,141,NOT APPLICABLE,
S0211,10,bone_pain,N,2,144,145,NOT APPLICABLE,
S0211,11,dry_skin,N,2,151,152,NOT APPLICABLE,
S0211,12,thrombosis/thrombus/embolism,Y,3,153,155,NOT APPLICABLE,
S0211,13,neutrophil_count_decreased,N,2,177,178,NOT APPLICABLE,
S0211,14,pain_in_limb,N,1,181,182,NOT APPLICABLE,
S0211,15,spasm,N,2,186,187,NOT APPLICABLE,
S0211,16,cataract,N,1,196,197,NOT APPLICABLE,
S0211,17,neuropathy-sensory,N,2,225,226,hold,DM030
S0211,18,"potassium,_serum-low_(hypokalemia)",N,2,236,237,NOT APPLICABLE,
S0211,19,thrombocytopenia,N,2,239,240,hold,DM011
S0211,20,anemia,N,1,264,265,NOT APPLICABLE,
S0211,21,pain,N,1,271,272,NOT APPLICABLE,
S0211,22,cardiac_failure_secondary_to_chest_deformity,Y,3,280,282,NOT APPLICABLE,
S0211,23,hypercholesterolemia,N,1,302,309,NOT APPLICABLE,
S0211,24,rash/desquamation,N,1,325,326,NOT APPLICABLE,
S0211,25,dyspepsia,N,1,327,328,NOT APPLICABLE,
S0211,26,thrombosis/thrombus/embolism,N,2,328,329,NOT APPLICABLE,
S0211,27,back_pain,N,1,332,337,NOT APPLICABLE,
S0211,28,neutropenia,N,1,347,365,NOT APPLICABLE,
S0211,29,hypertension_variable,N,1,365,393,NOT APPLICABLE,
S0212,1,rash/desquamation,N,2,19,20,NOT APPLICABLE,
S0212,2,dizziness,N,1,47,48,NOT APPLICABLE,
S0212,3,neutrophil_count_decreased,N,1,68,69,NOT APPLICABLE,
S0212,4,vomiting,N,2,138,141,NOT APPLICABLE,
S0212,5,thrombocytopenia,N,1,144,145,hold,DM011
S0212,6,hypercholesterolemia,N,1,200,201,NOT APPLICABLE,
S0212,7,neuropathy-sensory,N,1,221,225,NOT APPLICABLE,
S0212,8,hypertension_variable,N,2,305,309,hold,DM034
S0213,1,decreased_platelet_count,N,2,44,45,hold,DM011
S0213,2,hypocalcemia,N,2,75,76,NOT APPLICABLE,
S0213,3,asthenia,N,1,76,77,NOT APPLICABLE,
S0213,4,upper_respiratory_infections,N,2,106,113,NOT APPLICABLE,
S0213,5,hemoglobin_normal_12_16_gm,N,2,118,119,NOT APPLICABLE,
S0213,6,neutrophil_count_decreased,N,1,133,134,NOT APPLICABLE,
S0213,7,hypokalemia,N,2,152,153,NOT APPLICABLE,
S0213,8,dizziness,N,2,167,169,NOT APPLICABLE,
S0213,9,anemia,N,2,192,197,NOT APPLICABLE,
S0213,10,fatigue,N,2,200,201,NOT APPLICABLE,
S0213,11,diarrhea,N,2,254,255,NOT APPLICABLE,
S0213,12,neuropathy-sensory,N,1,259,260,NOT APPLICABLE,
S0213,13,nausea,N,1,293,294,NOT APPLICABLE,
S0214,1,bone_pain,N,1,14,15,NOT APPLICABLE,
S0214,2,leukopenia,N,1,24,29,NOT APPLICABLE,
S0214,3,anemia,N,1,35,36,NOT APPLICABLE,
S0214,4,hypertension adverse events,N,2,81,85,hold,DM034
S0214,5,blurred_vision,N,2,83,85,NOT APPLICABLE,
S0214,6,neutrophil_count_decreased,N,2,120,121,NOT APPLICABLE,
S0214,7,neutropenia,N,2,130,131,NOT APPLICABLE,
S0214,8,cataract,N,1,159,160,NOT APPLICABLE,
S0214,9,respiratory_tract_infections,N,2,161,162,NOT APPLICABLE,
S0214,10,hypertension_variable,N,1,221,225,hold,DM034
S0214,11,hypocalcemia,N,2,250,253,NOT APPLICABLE,
S0214,12,cardiac failure events,N,1,258,259,NOT APPLICABLE,
S0214,13,neuropathy-sensory,N,1,311,312,NOT APPLICABLE,
S0214,14,coughing,N,1,344,365,NOT APPLICABLE,
S0215,1,hypocalcemia,N,1,30,31,NOT APPLICABLE,
S0215,2,vomiting,N,1,42,43,NOT APPLICABLE,
S0215,3,neutropenia,N,1,107,113,NOT APPLICABLE,
S0215,4,pain_in_limb,N,2,110,113,NOT APPLICABLE,
S0215,5,hyperglycemia,N,1,113,114,NOT APPLICABLE,
S0215,6,respiratory_tract_infections,N,2,119,120,NOT APPLICABLE,
S0215,7,diarrhea,Y,3,178,180,no_modification,DM040
S0215,8,rash_erythematous_macules_or_papules,N,1,193,197,NOT APPLICABLE,
S0215,9,rash/desquamation,N,1,194,197,NOT APPLICABLE,
S0215,10,anemia,N,1,248,253,NOT APPLICABLE,
S0215,11,fatigue,N,2,304,309,NOT APPLICABLE,
S0215,12,sleeplessness,N,1,312,313,NOT APPLICABLE,
S0215,13,peripheral_edema,N,2,328,329,NOT APPLICABLE,
S0215,14,blurred_vision,N,2,340,365,NOT APPLICABLE,
S0215,15,pneumonia,Y,3,353,393,NOT APPLICABLE,
S0216,1,thrombocytopenia,N,1,7,8,hold,DM011
S0216,2,neuralgia,N,2,26,29,NOT APPLICABLE,
S0216,3,dysgeusia,N,2,112,113,NOT APPLICABLE,
S0216,4,hypercholesterolemia,N,1,130,131,NOT APPLICABLE,
S0216,5,peripheral_nervous_system_diseases,N,1,192,197,NOT APPLICABLE,
S0216,6,neutrophil_count_decreased,N,1,221,225,NOT APPLICABLE,
S0216,7,rash/desquamation,N,1,231,232,NOT APPLICABLE,
S0216,8,hypertension_variable,N,2,285,286,hold,DM034
S0217,1,dyspepsia,N,2,2,3,NOT APPLICABLE,
S0217,2,neuropathy-sensory,N,1,7,8,NOT APPLICABLE,
S0217,3,respiratory_tract_infections,Y,3,73,75,hold,DM028
S0217,4,hypertension_variable,N,2,117,118,hold,DM034
S0217,5,neutrophil_count_decreased,N,2,117,118,NOT APPLICABLE,
S0217,6,nausea,N,2,133,134,NOT APPLICABLE,
S0217,7,thrombosis/thrombus/embolism,N,1,134,141,NOT APPLICABLE,
S0217,8,peripheral_nervous_system_diseases,N,1,135,141,NOT APPLICABLE,
S0217,9,bone_pain,N,1,179,180,NOT APPLICABLE,
S0217,10,nasopharyngitis,N,1,194,197,NOT APPLICABLE,
S0217,11,rash/desquamation,N,2,199,200,NOT APPLICABLE,
S0217,12,dyspnea,N,2,248,253,hold,DM032
S0217,13,thrombocytopenia,N,1,250,253,hold,DM011
S0217,14,anemia,N,1,267,268,NOT APPLICABLE,
S0217,15,sensory_neuropathy,N,1,285,286,NOT APPLICABLE,
S0217,16,neuralgia,N,1,320,321,NOT APPLICABLE,
S0217,17,hypercholesterolemia,N,2,355,365,NOT APPLICABLE,
S0218,1,nausea,N,1,12,13,NOT APPLICABLE,
S0218,2,dizziness,N,1,22,29,NOT APPLICABLE,
S0218,3,hypokalemia,N,2,31,32,NOT APPLICABLE,
S0218,4,hypertension adverse events,N,2,37,38,hold,DM034
S0218,5,deep_vein_thrombosis,N,2,84,85,NOT APPLICABLE,
S0218,6,pain,N,1,105,106,NOT APPLICABLE,
S0218,7,non_cardiac_chest_pain,N,2,124,125,NOT APPLICABLE,
S0218,8,vomiting,N,2,143,144,NOT APPLICABLE,
S0218,9,urinary_tract_infection,Y,3,150,152,hold,DM028
S0218,10,leukopenia,N,1,155,156,NOT APPLICABLE,
S0218,11,upper_respiratory_infections,N,2,213,214,NOT APPLICABLE,
S0218,12,hypocalcemia,N,2,218,225,NOT APPLICABLE,
S0218,13,sleeplessness,N,1,262,263,NOT APPLICABLE,
S0218,14,weight_loss,N,2,273,274,NOT APPLICABLE,
S0218,15,neutrophil_count_decreased,N,1,277,281,NOT APPLICABLE,
S0218,16,fever,N,1,299,300,NOT APPLICABLE,
S0218,17,sensory_neuropathy,N,2,315,316,hold,DM030
S0218,18,diarrhea,N,1,336,337,NOT APPLICABLE,
S0218,19,pain_in_limb,N,1,336,337,NOT APPLICABLE,
S0218,20,blurred_vision,N,1,359,365,NOT APPLICABLE,
S0219,1,dyspepsia,N,1,5,6,NOT APPLICABLE,
S0219,2,anemia,N,2,11,12,NOT APPLICABLE,
S0219,3,thrombocytopenia,N,2,44,45,hold,DM011
S0219,4,hypertension_variable,N,2,50,57,hold,DM034
S0219,5,neuralgia,N,2,104,105,NOT APPLICABLE,
S0219,6,neuropathy-sensory,N,2,157,158,hold,DM030
S0219,7,hypokalemia,N,2,170,171,NOT APPLICABLE,
S0219,8,neutrophil_count_decreased,N,2,246,253,NOT APPLICABLE,
S0219,9,diarrhea,N,2,252,253,NOT APPLICABLE,
S0219,10,anorexia,N,2,264,265,NOT APPLICABLE,
S0219,11,hypercholesterolemia,N,2,354,365,NOT APPLICABLE,
S0219,12,rash/desquamation,N,1,359,365,NOT APPLICABLE,
S0220,1,rash/desquamation,N,1,28,29,NOT APPLICABLE,
S0220,2,sensory_neuropathy,N,1,29,30,NOT APPLICABLE,
S0220,3,hypertension_variable,N,2,52,57,hold,DM034
S0220,4,hypercholesterolemia,N,1,61,62,NOT APPLICABLE,
S0220,5,peripheral_nervous_system_diseases,N,2,88,89,NOT APPLICABLE,
S0220,6,neuralgia,N,2,91,92,NOT APPLICABLE,
S0220,7,thrombocytopenia,N,1,106,113,hold,DM011
S0220,8,bone_pain,N,1,136,141,NOT APPLICABLE,
S0220,9,"potassium,_serum-low_(hypokalemia)",N,1,139,141,NOT APPLICABLE,
S0220,10,hypertension,N,1,169,170,hold,DM034
S0220,11,decrease_in_appetite,N,2,176,177,NOT APPLICABLE,
S0220,12,neutrophil_count_decreased,N,2,179,180,NOT APPLICABLE,
S0220,13,vomiting,N,2,218,225,NOT APPLICABLE,
S0221,1,thrombocytopenia,N,1,50,57,hold,DM011
S0221,2,hypertension_variable,N,2,73,74,hold,DM034
S0221,3,dyspepsia,N,1,157,158,NOT APPLICABLE,
S0221,4,hypercholesterolemia,N,1,187,188,NOT APPLICABLE,
S0221,5,neutrophil_count_decreased,N,2,194,197,NOT APPLICABLE,
S0221,6,rash/desquamation,N,1,274,281,NOT APPLICABLE,
S0221,7,back_pain,N,2,289,290,NOT APPLICABLE,
S0221,8,peripheral_nervous_system_diseases,N,1,307,309,NOT APPLICABLE,
S0221,9,neuralgia,N,2,320,321,NOT APPLICABLE,
S0222,1,cardiac failure events,N,2,5,6,NOT APPLICABLE,
S0222,2,pain_in_limb,N,1,18,19,NOT APPLICABLE,
S0222,3,hypocalcemia,N,1,52,57,NOT APPLICABLE,
S0222,4,neuropathy-sensory,N,2,97,98,hold,DM030
S0222,5,diarrhea,N,2,103,104,NOT APPLICABLE,
S0222,6,spasm,N,2,135,141,NOT APPLICABLE,
S0222,7,hypokalemia,N,2,179,180,NOT APPLICABLE,
S0222,8,blurred_vision,N,2,181,182,NOT APPLICABLE,
S0222,9,vomiting,N,1,203,204,NOT APPLICABLE,
S0222,10,cardiac failure events,N,2,233,234,NOT APPLICABLE,
S0222,11,hyperglycemia,N,1,330,337,NOT APPLICABLE,
S0222,12,coughing,N,2,334,337,NOT APPLICABLE,
S0222,13,cardiac failure events,N,2,343,365,NOT APPLICABLE,
S0223,1,pain_in_limb,N,2,4,5,NOT APPLICABLE,
S0223,2,peripheral_edema,N,1,13,14,NOT APPLICABLE,
S0223,3,bone_pain,N,1,56,57,NOT APPLICABLE,
S0223,4,weight_loss,N,2,67,68,NOT APPLICABLE,
S0223,5,blurred_vision,N,1,99,100,NOT APPLICABLE,
S0223,6,hypertension adverse events,N,1,99,100,hold,DM034
S0223,7,hypocalcemia,N,1,165,169,NOT APPLICABLE,
S0223,8,hypertension_variable,N,1,183,184,hold,DM034
S0223,9,fever,N,1,188,189,NOT APPLICABLE,
S0223,10,acute renal failure adverse events,N,1,204,205,NOT APPLICABLE,
S0223,11,anemia,N,2,211,212,NOT APPLICABLE,
S0223,12,diarrhea,N,1,278,281,NOT APPLICABLE,
S0223,13,dizziness,N,1,278,281,NOT APPLICABLE,
S0223,14,hypoalbuminemia,N,2,329,330,NOT APPLICABLE,
S0223,15,neutrophil_count_decreased,N,2,346,365,NOT APPLICABLE,
S0223,16,fatigue,N,1,365,393,NOT APPLICABLE,
S0224,1,upper_respiratory_infections,N,1,4,5,NOT APPLICABLE,
S0224,2,weight_loss,N,2,27,29,NOT APPLICABLE,
S0224,3,hypokalemia,N,2,28,29,NOT APPLICABLE,
S0224,4,anemia,N,1,38,39,NOT APPLICABLE,
S0224,5,peripheral_edema,N,1,91,92,NOT APPLICABLE,
S0224,6,neutropenia,N,2,95,96,NOT APPLICABLE,
S0224,7,sleeplessness,N,2,117,118,NOT APPLICABLE,
S0224,8,neuropathy-motor,N,2,129,130,hold,DM030
S0224,9,hypocalcemia,N,2,140,141,NOT APPLICABLE,
S0224,10,constipation,N,1,171,172,NOT APPLICABLE,
S0224,11,fatigue,N,1,236,237,NOT APPLICABLE,
S0224,12,hypertension,N,2,240,241,hold,DM034
S0224,13,diarrhea,N,1,268,269,NOT APPLICABLE,
S0224,14,dizziness,N,2,280,281,NOT APPLICABLE,
S0225,1,nausea,N,2,2,3,NOT APPLICABLE,
S0225,2,pain_in_limb,N,1,8,9,NOT APPLICABLE,
S0225,3,thrombocytopenia,N,2,25,29,hold,DM011
S0225,4,bone_pain,N,1,77,78,NOT APPLICABLE,
S0225,5,hypercholesterolemia,N,2,94,95,NOT APPLICABLE,
S0225,6,respiratory_tract_infections,Y,3,95,97,hold,DM028
S0225,7,decrease_in_appetite,N,2,116,117,NOT APPLICABLE,
S0225,8,back_pain,N,1,153,154,NOT APPLICABLE,
S0225,9,hypertension_variable,N,2,156,157,hold,DM034
S0225,10,lower_respiratory_tract_infection,Y,3,159,161,hold,DM028
S0225,11,neuralgia,N,2,169,170,NOT APPLICABLE,
S0225,12,dehydration,Y,3,231,233,NOT APPLICABLE,
S0225,13,fever,Y,3,232,234,NOT APPLICABLE,
S0225,14,peripheral_nervous_system_diseases,N,1,240,241,NOT APPLICABLE,
S0225,15,anemia,N,2,243,244,NOT APPLICABLE,
S0225,16,neuropathy-sensory,N,2,254,255,hold,DM030
S0225,17,"potassium,_serum-low_(hypokalemia)",N,1,273,274,NOT APPLICABLE,
S0225,18,neutrophil_count_decreased,N,2,323,324,NOT APPLICABLE,
S0225,19,sensory_neuropathy,N,1,338,365,NOT APPLICABLE,
S0225,20,rash/desquamation,N,2,349,365,NOT APPLICABLE,
S0225,21,dizziness,N,1,357,365,NOT APPLICABLE,
S0226,1,anemia,N,2,38,39,NOT APPLICABLE,
S0226,2,peripheral_edema,N,2,83,85,NOT APPLICABLE,
S0226,3,dizziness,N,2,84,85,NOT APPLICABLE,
S0226,4,cardiac_failure_secondary_to_chest_deformity,Y,3,89,91,NOT APPLICABLE,
S0226,5,blurred_vision,N,1,102,103,NOT APPLICABLE,
S0226,6,fatigue,N,2,117,118,NOT APPLICABLE,
S0226,7,hypocalcemia,N,1,126,127,NOT APPLICABLE,
S0226,8,weight_loss,N,1,228,229,NOT APPLICABLE,
S0226,9,upper_respiratory_infections,N,1,258,259,NOT APPLICABLE,
S0226,10,neutrophil_count_decreased,N,1,311,312,NOT APPLICABLE,
S0226,11,hypoalbuminemia,N,2,341,365,NOT APPLICABLE,
S0226,12,hyperglycemia,N,1,352,365,NOT APPLICABLE,
S0226,13,asthenia,N,2,360,365,NOT APPLICABLE,
S0227,1,dizziness,N,1,23,29,NOT APPLICABLE,
S0227,2,hypercholesterolemia,N,2,30,31,NOT APPLICABLE,
S0227,3,anemia,N,2,31,32,NOT APPLICABLE,
S0227,4,dehydration,Y,3,53,58,NOT APPLICABLE,
S0227,5,diarrhea,N,2,78,85,NOT APPLICABLE,
S0227,6,neuropathy-sensory,N,2,80,85,hold,DM030
S0227,7,decrease_in_appetite,N,1,147,148,NOT APPLICABLE,
S0227,8,gastroenteritis,N,1,163,169,NOT APPLICABLE,
S0227,9,vomiting,N,2,195,197,NOT APPLICABLE,
S0227,10,hypertension_variable,N,2,196,197,hold,DM034
S0227,11,thrombocytopenia,N,2,209,210,hold,DM011
S0227,12,influenza,N,2,223,225,NOT APPLICABLE,
S0227,13,respiratory_tract_infections,Y,3,228,230,hold,DM028
S0227,14,neuralgia,N,1,247,253,NOT APPLICABLE,
S0227,15,cataract,N,2,263,264,NOT APPLICABLE,
S0227,16,hyperglycemia,N,2,280,281,NOT APPLICABLE,
S0227,17,pain_in_limb,N,2,282,283,NOT APPLICABLE,
S0227,18,rash/desquamation,N,2,285,286,NOT APPLICABLE,
S0227,19,neutropenia,N,2,286,287,NOT APPLICABLE,
S0227,20,nasopharyngitis,N,1,296,297,NOT APPLICABLE,
S0227,21,nausea,N,2,319,320,NOT APPLICABLE,
S0227,22,peripheral_edema,N,2,330,337,NOT APPLICABLE,
S0227,23,neutrophil_count_decreased,N,1,330,337,NOT APPLICABLE,
S0227,24,lower_respiratory_tract_infection,Y,3,355,393,NOT APPLICABLE,
S0227,25,non_cardiac_chest_pain,N,1,366,393,NOT APPLICABLE,
S0228,1,hypertriglyceridemia,N,2,6,7,NOT APPLICABLE,
S0228,2,respiratory_tract_infections,Y,3,20,22,hold,DM028
S0228,3,thrombocytopenia,N,2,34,35,hold,DM011
S0228,4,pain,N,1,34,35,NOT APPLICABLE,
S0228,5,nasopharyngitis,N,2,42,43,NOT APPLICABLE,
S0228,6,decrease_in_appetite,N,2,45,46,NOT APPLICABLE,
S0228,7,myalgia,N,1,49,50,NOT APPLICABLE,
S0228,8,hypertension_variable,N,2,56,57,hold,DM034
S0228,9,constipation,N,1,58,59,NOT APPLICABLE,
S0228,10,neutropenia,N,1,78,85,NOT APPLICABLE,
S0228,11,back_pain,N,2,122,123,NOT APPLICABLE,
S0228,12,neuralgia,N,2,136,141,NOT APPLICABLE,
S0228,13,rash/desquamation,N,2,140,141,NOT APPLICABLE,
S0228,14,hyperglycemia,Y,3,144,146,NOT APPLICABLE,
S0228,15,dizziness,N,1,147,148,NOT APPLICABLE,
S0228,16,respiratory_tract_infections,N,1,168,169,NOT APPLICABLE,
S0228,17,peripheral_nervous_system_diseases,N,1,170,171,NOT APPLICABLE,
S0228,18,dyspepsia,N,1,171,172,NOT APPLICABLE,
S0228,19,sensory_neuropathy,N,1,178,179,NOT APPLICABLE,
S0228,20,anemia,N,2,184,185,NOT APPLICABLE,
S0228,21,dysgeusia,N,1,194,197,NOT APPLICABLE,
S0228,22,lower_respiratory_tract_infection,Y,3,203,205,hold,DM028
S0228,23,spasm,N,1,216,217,NOT APPLICABLE,
S0228,24,headache,N,2,218,225,NOT APPLICABLE,
S0228,25,hypercholesterolemia,N,1,219,225,NOT APPLICABLE,
S0228,26,dry_skin,N,1,221,225,NOT APPLICABLE,
S0228,27,leukopenia,N,2,225,226,NOT APPLICABLE,
S0228,28,neutrophil_count_decreased,N,2,228,229,NOT APPLICABLE,
S0228,29,anorexia,N,1,229,230,NOT APPLICABLE,
S0228,30,bone_pain,N,1,233,234,NOT APPLICABLE,
S0229,1,decrease_in_appetite,N,2,29,30,NOT APPLICABLE,
S0229,2,rash/desquamation,N,1,65,66,NOT APPLICABLE,
S0229,3,peripheral_nervous_system_diseases,N,1,74,75,NOT APPLICABLE,
S0229,4,neutrophil_count_decreased,N,2,156,157,NOT APPLICABLE,
S0229,5,thrombocytopenia,N,2,161,162,hold,DM011
S0229,6,hypertension_variable,N,2,184,185,hold,DM034
S0229,7,hypercholesterolemia,N,1,185,186,NOT APPLICABLE,
S0229,8,headache,N,2,217,218,NOT APPLICABLE,
S0230,1,nausea,N,1,79,85,NOT APPLICABLE,
S0230,2,dizziness,N,1,111,113,NOT APPLICABLE,
S0230,3,hypertension adverse events,N,2,116,117,hold,DM034
S0230,4,leukopenia,N,1,134,141,NOT APPLICABLE,
S0230,5,diarrhea,N,1,151,152,NOT APPLICABLE,
S0230,6,pain_in_limb,N,1,159,160,NOT APPLICABLE,
S0230,7,weight_loss,N,2,167,169,NOT APPLICABLE,
S0230,8,blurred_vision,N,1,181,182,NOT APPLICABLE,
S0230,9,hypocalcemia,N,1,192,197,NOT APPLICABLE,
S0230,10,hypertension adverse events,N,1,211,212,hold,DM034
S0230,11,fatigue,N,1,215,216,NOT APPLICABLE,
S0230,12,hypokalemia,N,2,255,256,NOT APPLICABLE,
S0230,13,vomiting,N,2,265,266,NOT APPLICABLE,
S0231,1,hypokalemia,N,2,37,38,NOT APPLICABLE,
S0231,2,blurred_vision,N,2,43,44,NOT APPLICABLE,
S0231,3,back_pain,N,2,77,78,NOT APPLICABLE,
S0231,4,peripheral_nervous_system_diseases,N,2,79,85,NOT APPLICABLE,
S0231,5,spasm,N,2,100,101,NOT APPLICABLE,
S0231,6,hypertension adverse events,N,2,107,113,hold,DM034
S0231,7,rash_erythematous_macules_or_papules,N,2,159,160,NOT APPLICABLE,
S0231,8,pneumonia,Y,3,179,181,NOT APPLICABLE,
S0231,9,hypocalcemia,N,1,201,202,NOT APPLICABLE,
S0231,10,neutropenia,N,2,220,225,NOT APPLICABLE,
S0231,11,acute renal failure adverse events,N,1,220,225,NOT APPLICABLE,
S0231,12,anemia,N,2,221,225,NOT APPLICABLE,
S0231,13,hyperglycemia,N,2,240,241,NOT APPLICABLE,
S0231,14,acute renal failure adverse events,N,1,301,302,NOT APPLICABLE,
S0231,15,neuropathy-motor,N,2,334,337,hold,DM030
S0231,16,sleeplessness,N,1,366,393,NOT APPLICABLE,
S0232,1,hypocalcemia,N,1,9,10,NOT APPLICABLE,
S0232,2,thrombocytopenia,Y,3,13,15,hold,DM011
S0232,3,hypertension adverse events,N,2,30,31,hold,DM034
S0232,4,diarrhea,N,2,82,85,NOT APPLICABLE,
S0232,5,pain_in_limb,N,1,85,86,NOT APPLICABLE,
S0232,6,anemia,N,1,94,95,NOT APPLICABLE,
S0232,7,leukopenia,N,1,94,95,NOT APPLICABLE,
S0232,8,neuropathic_pain,N,2,100,101,NOT APPLICABLE,
S0232,9,hypertension,N,1,133,134,hold,DM034
S0232,10,weight_loss,N,2,158,159,NOT APPLICABLE,
S0232,11,hypertension adverse events,N,2,199,200,hold,DM034
S0232,12,vomiting,N,2,209,210,NOT APPLICABLE,
S0232,13,fatigue,N,2,235,236,NOT APPLICABLE,
S0232,14,spasm,N,1,238,239,NOT APPLICABLE,
S0232,15,nausea,N,1,240,241,NOT APPLICABLE,
S0232,16,hyperglycemia,N,1,251,253,NOT APPLICABLE,
S0232,17,hypertension adverse events,N,1,264,265,hold,DM034
S0232,18,sleeplessness,N,1,281,282,NOT APPLICABLE,
S0232,19,non_cardiac_chest_pain,N,2,356,365,NOT APPLICABLE,
S0233,1,blurred_vision,N,2,49,50,NOT APPLICABLE,
S0233,2,diarrhea,N,1,58,59,NOT APPLICABLE,
S0233,3,urinary_tract_infection,Y,3,68,70,hold,DM028
S0233,4,hypertension,N,1,107,113,hold,DM034
