STUDYID,USUBJID,ARMCD,AGE,SEX,RACE,ETHNIC,RFSTDTC_DAY,ENROLLMENT_DAY,TRTSDY,TRTEDY,EOTREAS,N_CYCLES,N_REDUCTIONS,N_HOLDS,RDI,ANY_SAE,ANY_GR3,DTHFL,DTHDY
ACNS0332,S0001,ARM1,12.69,male,white,not_hispanic_or_latino,1,7.1,1,168,completed planned treatment,6,3,0,1.0,Y,Y,N,
ACNS0332,S0002,ARM2,12.52,female,white,not_hispanic_or_latino,1,9.2,1,168,completed planned treatment,6,0,0,1.0,N,N,Y,714
ACNS0332,S0003,ARM1,9.01,male,white,not_hispanic_or_latino,1,10.0,1,168,completed planned treatment,6,1,0,1.0,N,N,N,
ACNS0332,S0004,ARM1,13.47,male,white,hispanic_or_latino,1,10.9,1,168,completed planned treatment,6,1,0,1.0,N,N,N,
ACNS0332,S0005,ARM1,14.03,male,white,not_hispanic_or_latino,1,17.8,1,168,completed planned treatment,6,3,0,1.0,Y,Y,N,
ACNS0332,S0006,ARM1,9.93,female,other,hispanic_or_latino,1,18.2,1,168,completed planned treatment,6,2,0,1.0,N,N,N,
ACNS0332,S0007,ARM2,6.78,male,white,not_hispanic_or_latino,1,18.4,1,168,completed planned treatment,6,0,0,1.0,Y,Y,Y,639
ACNS0332,S0008,ARM1,9.77,male,asian,not_hispanic_or_latino,1,22.0,1,168,completed planned treatment,6,2,0,1.0,N,N,Y,394
ACNS0332,S0009,ARM2,15.31,male,white,not_hispanic_or_latino,1,24.2,1,168,completed planned treatment,6,1,0,1.0,N,N,N,
ACNS0332,S0010,ARM2,11.32,female,white,not_hispanic_or_latino,1,44.3,1,168,completed planned treatment,6,2,0,1.0,Y,Y,N,
ACNS0332,S0011,ARM2,10.09,female,white,not_hispanic_or_latino,1,46.6,1,168,completed planned treatment,6,1,0,1.0,N,N,N,
ACNS0332,S0012,ARM1,9.89,male,white,not_hispanic_or_latino,1,49.6,1,168,completed planned treatment,6,0,0,1.0,N,N,N,
ACNS0332,S0013,ARM2,13.03,female,white,not_hispanic_or_latino,1,53.6,1,88,"withdrawal (subject, loss to follow-up or physician decision)",4,0,0,1.0,N,N,N,
ACNS0332,S0014,ARM2,9.43,male,white,not_hispanic_or_latino,1,55.1,1,88,disease progression,4,2,0,1.0,Y,Y,N,
ACNS0332,S0015,ARM2,10.47,female,white,not_hispanic_or_latino,1,62.9,1,168,completed planned treatment,6,2,0,1.0,N,N,N,
ACNS0332,S0016,ARM1,13.0,male,white,not_hispanic_or_latino,1,77.9,1,168,completed planned treatment,6,1,0,1.0,N,N,N,
ACNS0332,S0017,ARM1,10.99,male,white,not_hispanic_or_latino,1,78.5,1,168,completed planned treatment,6,2,0,1.0,N,N,N,
ACNS0332,S0018,ARM2,10.0,male,white,not_hispanic_or_latino,1,80.1,1,145,disease progression,6,1,0,1.0,Y,Y,N,
ACNS0332,S0019,ARM1,17.48,male,white,not_hispanic_or_latino,1,80.6,1,78,"withdrawal (subject, loss to follow-up or physician decision)",3,0,0,1.0,N,N,N,
ACNS0332,S0020,ARM2,7.72,male,white,not_hispanic_or_latino,1,87.7,1,168,completed planned treatment,6,1,0,1.0,N,N,N,
ACNS0332,S0021,ARM2,14.04,female,white,not_hispanic_or_latino,1,91.6,1,168,completed planned treatment,6,2,0,1.0,Y,Y,N,
ACNS0332,S0022,ARM2,9.34,female,white,not_hispanic_or_latino,1,96.7,1,168,completed planned treatment,6,1,0,1.0,N,N,N,
ACNS0332,S0023,ARM2,7.47,male,white,hispanic_or_latino,1,97.2,1,168,completed planned treatment,6,0,0,1.0,N,N,N,
ACNS0332,S0024,ARM2,10.6,male,white,hispanic_or_latino,1,97.6,1,168,completed planned treatment,6,2,0,1.0,Y,Y,N,
ACNS0332,S0025,ARM2,15.32,female,white,not_hispanic_or_latino,1,102.2,1,168,completed planned treatment,6,0,0,1.0,N,N,N,
ACNS0332,S0026,ARM1,13.49,female,white,not_hispanic_or_latino,1,103.7,1,168,completed planned treatment,6,1,0,1.0,N,N,Y,675
ACNS0332,S0027,ARM2,11.52,male,white,not_hispanic_or_latino,1,104.7,1,168,completed planned treatment,6,1,0,1.0,N,N,N,
ACNS0332,S0028,ARM2,5.15,female,white,not_hispanic_or_latino,1,108.3,1,168,completed planned treatment,6,0,0,1.0,N,N,Y,262
ACNS0332,S0029,ARM1,11.93,male,white,not_hispanic_or_latino,1,117.9,1,100,adverse event (registry discontinuation rate),4,0,0,1.0,N,N,N,
ACNS0332,S0030,ARM2,8.78,male,white,not_hispanic_or_latino,1,118.5,1,168,completed planned treatment,6,3,0,1.0,Y,Y,N,
ACNS0332,S0031,ARM2,10.52,male,white,not_hispanic_or_latino,1,123.4,1,34,"withdrawal (subject, loss to follow-up or physician decision)",2,0,0,1.0,Y,Y,N,
ACNS0332,S0032,ARM1,10.78,female,white,not_hispanic_or_latino,1,124.5,1,168,completed planned treatment,6,1,0,1.0,N,N,N,
ACNS0332,S0033,ARM1,11.93,female,white,not_hispanic_or_latino,1,125.6,1,168,completed planned treatment,6,0,0,1.0,N,N,N,
ACNS0332,S0034,ARM1,10.91,female,asian,not_hispanic_or_latino,1,142.4,1,102,adverse event (registry discontinuation rate),4,0,0,1.0,N,N,N,
ACNS0332,S0035,ARM2,15.25,male,white,not_hispanic_or_latino,1,144.1,1,168,completed planned treatment,6,1,0,1.0,Y,Y,N,
ACNS0332,S0036,ARM1,13.4,male,white,not_hispanic_or_latino,1,144.8,1,144,disease progression,6,1,0,1.0,Y,Y,N,
ACNS0332,S0037,ARM2,11.47,female,white,not_hispanic_or_latino,1,146.1,1,168,completed planned treatment,6,0,0,1.0,N,N,N,
ACNS0332,S0038,ARM1,10.3,female,white,not_hispanic_or_latino,1,148.2,1,168,completed planned treatment,6,2,0,1.0,N,N,N,
ACNS0332,S0039,ARM1,15.97,female,white,not_hispanic_or_latino,1,149.6,1,87,disease progression,4,1,0,1.0,Y,Y,N,
ACNS0332,S0040,ARM1,10.03,male,white,not_hispanic_or_latino,1,150.0,1,168,completed planned treatment,6,1,0,1.0,Y,Y,N,
ACNS0332,S0041,ARM1,14.48,female,white,hispanic_or_latino,1,150.6,1,59,disease progression,3,1,0,1.0,N,N,N,
ACNS0332,S0042,ARM2,5.6,male,white,not_hispanic_or_latino,1,154.6,1,168,completed planned treatment,6,1,0,1.0,Y,Y,N,
ACNS0332,S0043,ARM2,12.09,male,white,not_hispanic_or_latino,1,156.6,1,26,"withdrawal (subject, loss to follow-up or physician decision)",1,1,0,1.0,Y,Y,N,
ACNS0332,S0044,ARM2,13.83,female,white,not_hispanic_or_latino,1,158.8,1,168,completed planned treatment,6,0,0,1.0,N,N,N,
ACNS0332,S0045,ARM2,15.14,male,asian,not_hispanic_or_latino,1,163.1,1,6,disease progression,1,0,0,1.0,Y,Y,N,
ACNS0332,S0046,ARM1,7.79,male,white,not_hispanic_or_latino,1,181.7,1,168,completed planned treatment,6,2,0,1.0,Y,Y,N,
ACNS0332,S0047,ARM2,10.36,female,white,not_hispanic_or_latino,1,183.1,1,168,completed planned treatment,6,2,0,1.0,Y,Y,N,
ACNS0332,S0048,ARM2,16.98,male,white,not_hispanic_or_latino,1,189.4,1,168,completed planned treatment,6,2,0,1.0,N,N,N,
ACNS0332,S0049,ARM1,6.91,female,white,not_hispanic_or_latino,1,190.1,1,168,completed planned treatment,6,1,0,1.0,Y,Y,N,
ACNS0332,S0050,ARM1,15.05,male,white,not_hispanic_or_latino,1,193.8,1,168,completed planned treatment,6,2,0,1.0,N,N,Y,178
ACNS0332,S0051,ARM2,12.67,female,white,not_hispanic_or_latino,1,199.6,1,21,disease progression,1,1,0,1.0,N,N,N,
ACNS0332,S0052,ARM1,10.66,male,black_or_african_american,not_hispanic_or_latino,1,200.6,1,168,completed planned treatment,6,2,0,1.0,N,N,N,
ACNS0332,S0053,ARM2,11.71,female,white,not_hispanic_or_latino,1,205.2,1,168,completed planned treatment,6,0,0,1.0,Y,Y,N,
ACNS0332,S0054,ARM1,13.17,female,white,not_hispanic_or_latino,1,214.5,1,168,completed planned treatment,6,3,0,1.0,Y,Y,N,
ACNS0332,S0055,ARM2,8.54,female,white,not_hispanic_or_latino,1,215.1,1,168,completed planned treatment,6,2,0,1.0,Y,Y,N,
ACNS0332,S0056,ARM1,8.22,male,white,not_hispanic_or_latino,1,217.6,1,168,completed planned treatment,6,1,0,1.0,Y,Y,N,
ACNS0332,S0057,ARM1,9.88,female,white,not_hispanic_or_latino,1,217.8,1,168,completed planned treatment,6,0,0,1.0,Y,Y,N,
ACNS0332,S0058,ARM1,15.76,female,white,not_hispanic_or_latino,1,224.2,1,168,completed planned treatment,6,0,0,1.0,N,N,N,
ACNS0332,S0059,ARM1,6.08,female,other,not_hispanic_or_latino,1,227.8,1,34,"withdrawal (subject, loss to follow-up or physician decision)",2,0,0,1.0,N,N,N,
ACNS0332,S0060,ARM1,13.86,female,white,not_hispanic_or_latino,1,228.0,1,168,completed planned treatment,6,2,0,1.0,N,N,N,
ACNS0332,S0061,ARM1,14.36,female,asian,not_hispanic_or_latino,1,228.7,1,168,completed planned treatment,6,0,0,1.0,N,N,N,
ACNS0332,S0062,ARM2,11.86,female,asian,unknown_or_not_reported,1,230.0,1,97,disease progression,4,1,0,1.0,Y,Y,N,
ACNS0332,S0063,ARM1,7.82,female,white,not_hispanic_or_latino,1,238.7,1,25,disease progression,1,1,0,1.0,N,N,N,
ACNS0332,S0064,ARM1,9.83,male,white,not_hispanic_or_latino,1,240.8,1,108,death,4,0,0,1.0,Y,Y,Y,108
ACNS0332,S0065,ARM2,10.06,female,white,hispanic_or_latino,1,247.5,1,168,completed planned treatment,6,1,0,1.0,Y,Y,N,
ACNS0332,S0066,ARM1,7.62,female,black_or_african_american,not_hispanic_or_latino,1,251.0,1,168,completed planned treatment,6,0,0,1.0,N,N,N,
ACNS0332,S0067,ARM2,6.8,female,white,not_hispanic_or_latino,1,253.9,1,168,completed planned treatment,6,2,0,1.0,Y,Y,N,
ACNS0332,S0068,ARM2,8.81,female,white,not_hispanic_or_latino,1,256.0,1,41,disease progression,2,0,0,1.0,N,N,N,
ACNS0332,S0069,ARM1,10.06,male,asian,not_hispanic_or_latino,1,256.9,1,10,"withdrawal (subject, loss to follow-up or physician decision)",1,0,0,1.0,N,N,N,
ACNS0332,S0070,ARM2,3.01,male,white,not_hispanic_or_latino,1,260.3,1,168,completed planned treatment,6,1,0,1.0,Y,Y,Y,712
ACNS0332,S0071,ARM2,8.12,male,white,not_hispanic_or_latino,1,262.6,1,56,disease progression,2,1,0,1.0,Y,Y,N,
ACNS0332,S0072,ARM1,10.77,male,white,not_hispanic_or_latino,1,262.7,1,168,completed planned treatment,6,1,0,1.0,N,N,N,
ACNS0332,S0073,ARM1,14.42,male,white,not_hispanic_or_latino,1,267.5,1,73,adverse event (registry discontinuation rate),3,2,0,1.0,N,N,N,
ACNS0332,S0074,ARM1,5.77,male,other,not_hispanic_or_latino,1,272.6,1,73,disease progression,3,0,0,1.0,N,N,Y,594
ACNS0332,S0075,ARM2,7.88,female,white,not_hispanic_or_latino,1,274.6,1,168,completed planned treatment,6,1,0,1.0,Y,Y,N,
ACNS0332,S0076,ARM2,7.57,female,white,not_hispanic_or_latino,1,280.1,1,168,completed planned treatment,6,1,0,1.0,Y,Y,N,
ACNS0332,S0077,ARM1,9.84,male,white,not_hispanic_or_latino,1,280.2,1,109,"withdrawal (subject, loss to follow-up or physician decision)",4,0,0,1.0,N,N,N,
ACNS0332,S0078,ARM2,10.42,female,white,not_hispanic_or_latino,1,283.5,1,168,completed planned treatment,6,1,0,1.0,N,N,N,
ACNS0332,S0079,ARM2,11.52,male,black_or_african_american,not_hispanic_or_latino,1,296.6,1,168,completed planned treatment,6,1,0,1.0,N,N,N,
ACNS0332,S0080,ARM2,6.58,female,white,not_hispanic_or_latino,1,297.9,1,168,completed planned treatment,6,3,0,1.0,Y,Y,N,
ACNS0332,S0081,ARM1,8.34,male,white,not_hispanic_or_latino,1,300.9,1,168,completed planned treatment,6,0,0,1.0,Y,Y,N,
ACNS0332,S0082,ARM2,9.16,male,white,not_hispanic_or_latino,1,308.4,1,168,completed planned treatment,6,1,0,1.0,N,N,N,
ACNS0332,S0083,ARM1,10.5,male,black_or_african_american,not_hispanic_or_latino,1,312.1,1,168,completed planned treatment,6,1,0,1.0,N,N,N,
ACNS0332,S0084,ARM1,9.04,male,white,not_hispanic_or_latino,1,314.0,1,168,completed planned treatment,6,2,0,1.0,Y,Y,N,
ACNS0332,S0085,ARM1,14.82,male,white,not_hispanic_or_latino,1,324.6,1,168,completed planned treatment,6,0,0,1.0,N,N,N,
ACNS0332,S0086,ARM2,11.01,male,white,hispanic_or_latino,1,332.6,1,168,completed planned treatment,6,2,0,1.0,Y,Y,N,
ACNS0332,S0087,ARM2,16.86,female,white,not_hispanic_or_latino,1,338.8,1,168,completed planned treatment,6,2,0,1.0,N,N,N,
ACNS0332,S0088,ARM2,6.36,male,white,not_hispanic_or_latino,1,339.6,1,143,disease progression,6,1,0,1.0,N,N,N,
ACNS0332,S0089,ARM2,7.72,male,white,not_hispanic_or_latino,1,344.5,1,139,disease progression,5,1,0,1.0,N,N,N,
ACNS0332,S0090,ARM1,6.13,female,white,not_hispanic_or_latino,1,350.1,1,168,completed planned treatment,6,0,0,1.0,N,N,N,
ACNS0332,S0091,ARM2,9.78,male,white,not_hispanic_or_latino,1,361.6,1,168,completed planned treatment,6,1,0,1.0,N,N,Y,662
ACNS0332,S0092,ARM1,8.67,male,white,not_hispanic_or_latino,1,364.4,1,168,completed planned treatment,6,0,0,1.0,N,N,N,
ACNS0332,S0093,ARM1,13.83,female,black_or_african_american,not_hispanic_or_latino,1,371.5,1,168,completed planned treatment,6,0,0,1.0,N,N,N,
ACNS0332,S0094,ARM2,11.13,female,white,hispanic_or_latino,1,374.5,1,168,completed planned treatment,6,2,0,1.0,Y,Y,N,
ACNS0332,S0095,ARM1,6.08,male,white,not_hispanic_or_latino,1,376.9,1,114,disease progression,5,1,0,1.0,N,N,N,
ACNS0332,S0096,ARM2,12.18,male,black_or_african_american,not_hispanic_or_latino,1,381.5,1,168,completed planned treatment,6,0,0,1.0,N,N,N,
ACNS0332,S0097,ARM1,14.32,male,white,not_hispanic_or_latino,1,381.7,1,168,completed planned treatment,6,2,0,1.0,Y,Y,N,
ACNS0332,S0098,ARM2,11.38,female,white,not_hispanic_or_latino,1,389.6,1,59,disease progression,3,0,0,1.0,N,N,N,
ACNS0332,S0099,ARM2,9.71,male,asian,not_hispanic_or_latino,1,390.6,1,168,completed planned treatment,6,3,0,1.0,Y,Y,N,
ACNS0332,S0100,ARM1,6.94,male,white,not_hispanic_or_latino,1,391.0,1,38,disease progression,2,0,0,1.0,N,N,N,
ACNS0332,S0101,ARM1,9.82,female,white,hispanic_or_latino,1,394.3,1,168,completed planned treatment,6,2,0,1.0,Y,Y,N,
ACNS0332,S0102,ARM1,14.64,male,white,not_hispanic_or_latino,1,396.9,1,168,completed planned treatment,6,1,0,1.0,Y,Y,N,
ACNS0332,S0103,ARM1,12.87,female,white,not_hispanic_or_latino,1,397.0,1,168,completed planned treatment,6,0,0,1.0,N,N,N,
ACNS0332,S0104,ARM1,6.26,male,white,not_hispanic_or_latino,1,399.8,1,61,disease progression,3,1,0,1.0,N,N,N,
ACNS0332,S0105,ARM1,8.19,male,white,not_hispanic_or_latino,1,408.8,1,81,disease progression,3,0,0,1.0,N,N,N,
ACNS0332,S0106,ARM1,5.11,female,other,not_hispanic_or_latino,1,409.9,1,168,completed planned treatment,6,1,0,1.0,Y,Y,N,
ACNS0332,S0107,ARM2,10.61,male,white,not_hispanic_or_latino,1,410.8,1,65,disease progression,3,0,0,1.0,N,N,N,
ACNS0332,S0108,ARM1,11.55,male,white,not_hispanic_or_latino,1,425.2,1,100,"withdrawal (subject, loss to follow-up or physician decision)",4,0,0,1.0,N,N,N,
ACNS0332,S0109,ARM1,6.74,male,white,not_hispanic_or_latino,1,427.3,1,168,completed planned treatment,6,1,0,1.0,N,N,N,
ACNS0332,S0110,ARM1,7.6,male,white,not_hispanic_or_latino,1,429.9,1,168,completed planned treatment,6,0,0,1.0,N,N,N,
ACNS0332,S0111,ARM1,10.4,female,white,not_hispanic_or_latino,1,441.3,1,168,completed planned treatment,6,2,0,1.0,Y,Y,N,
ACNS0332,S0112,ARM2,11.68,female,white,not_hispanic_or_latino,1,441.4,1,61,disease progression,3,1,0,1.0,Y,Y,N,
ACNS0332,S0113,ARM2,8.83,male,white,not_hispanic_or_latino,1,442.4,1,168,completed planned treatment,6,1,0,1.0,N,N,N,
ACNS0332,S0114,ARM1,7.91,male,white,not_hispanic_or_latino,1,445.5,1,145,death,6,2,0,1.0,Y,Y,Y,145
ACNS0332,S0115,ARM2,8.85,male,white,not_hispanic_or_latino,1,449.1,1,61,disease progression,3,2,0,1.0,Y,Y,N,
ACNS0332,S0116,ARM1,14.08,female,white,not_hispanic_or_latino,1,450.7,1,122,"withdrawal (subject, loss to follow-up or physician decision)",5,0,0,1.0,N,N,N,
ACNS0332,S0117,ARM1,9.07,male,white,not_hispanic_or_latino,1,452.7,1,168,completed planned treatment,6,1,0,1.0,Y,Y,N,
ACNS0332,S0118,ARM2,14.09,male,white,not_hispanic_or_latino,1,455.9,1,168,completed planned treatment,6,0,0,1.0,N,N,N,
ACNS0332,S0119,ARM1,14.71,female,white,hispanic_or_latino,1,458.2,1,168,completed planned treatment,6,0,0,1.0,N,N,N,
ACNS0332,S0120,ARM1,7.62,female,other,not_hispanic_or_latino,1,463.4,1,111,"withdrawal (subject, loss to follow-up or physician decision)",4,1,0,1.0,N,N,N,
ACNS0332,S0121,ARM1,8.79,male,white,not_hispanic_or_latino,1,472.0,1,168,completed planned treatment,6,2,0,1.0,Y,Y,N,
ACNS0332,S0122,ARM1,10.13,male,white,not_hispanic_or_latino,1,490.5,1,168,completed planned treatment,6,2,0,1.0,Y,Y,N,
ACNS0332,S0123,ARM2,10.61,male,white,not_hispanic_or_latino,1,491.7,1,168,completed planned treatment,6,3,0,1.0,N,N,N,
ACNS0332,S0124,ARM1,13.38,male,white,not_hispanic_or_latino,1,492.3,1,168,completed planned treatment,6,0,0,1.0,N,N,N,
ACNS0332,S0125,ARM1,12.16,female,white,not_hispanic_or_latino,1,493.1,1,121,"withdrawal (subject, loss to follow-up or physician decision)",5,1,0,1.0,Y,Y,N,
ACNS0332,S0126,ARM1,9.86,male,white,hispanic_or_latino,1,500.0,1,168,completed planned treatment,6,1,0,1.0,N,N,N,
ACNS0332,S0127,ARM2,13.63,male,white,not_hispanic_or_latino,1,504.1,1,168,completed planned treatment,6,0,0,1.0,N,N,N,
ACNS0332,S0128,ARM1,7.48,male,white,not_hispanic_or_latino,1,506.5,1,168,completed planned treatment,6,1,0,1.0,Y,Y,N,
ACNS0332,S0129,ARM1,9.93,female,white,not_hispanic_or_latino,1,507.4,1,168,completed planned treatment,6,2,0,1.0,N,N,N,
ACNS0332,S0130,ARM2,10.74,male,white,not_hispanic_or_latino,1,515.0,1,168,completed planned treatment,6,0,0,1.0,N,N,N,
ACNS0332,S0131,ARM1,12.01,male,white,not_hispanic_or_latino,1,542.1,1,168,completed planned treatment,6,0,0,1.0,Y,Y,N,
ACNS0332,S0132,ARM2,11.84,male,black_or_african_american,not_hispanic_or_latino,1,543.1,1,46,disease progression,2,1,0,1.0,Y,Y,N,
ACNS0332,S0133,ARM2,5.78,female,white,not_hispanic_or_latino,1,551.8,1,168,completed planned treatment,6,1,0,1.0,Y,Y,N,
ACNS0332,S0134,ARM2,10.82,male,white,hispanic_or_latino,1,557.7,1,168,completed planned treatment,6,2,0,1.0,Y,Y,N,
ACNS0332,S0135,ARM2,10.4,female,white,not_hispanic_or_latino,1,559.7,1,83,disease progression,3,1,0,1.0,Y,Y,N,
ACNS0332,S0136,ARM2,7.43,male,white,not_hispanic_or_latino,1,562.9,1,168,completed planned treatment,6,3,0,1.0,N,N,N,
ACNS0332,S0137,ARM1,12.77,female,white,hispanic_or_latino,1,563.6,1,20,disease progression,1,2,0,1.0,Y,Y,N,
ACNS0332,S0138,ARM2,9.68,male,black_or_african_american,not_hispanic_or_latino,1,566.3,1,168,completed planned treatment,6,0,0,1.0,N,N,N,
ACNS0332,S0139,ARM1,7.5,female,white,not_hispanic_or_latino,1,574.6,1,168,completed planned treatment,6,1,0,1.0,Y,Y,N,
ACNS0332,S0140,ARM1,11.4,female,white,not_hispanic_or_latino,1,586.6,1,168,completed planned treatment,6,0,0,1.0,Y,Y,N,
ACNS0332,S0141,ARM2,5.95,male,white,not_hispanic_or_latino,1,590.6,1,168,completed planned treatment,6,2,0,1.0,N,N,N,
ACNS0332,S0142,ARM2,5.09,male,white,not_hispanic_or_latino,1,595.9,1,168,completed planned treatment,6,0,0,1.0,N,N,N,
ACNS0332,S0143,ARM2,12.26,male,white,not_hispanic_or_latino,1,597.9,1,168,completed planned treatment,6,2,0,1.0,N,N,N,
ACNS0332,S0144,ARM2,10.24,male,white,not_hispanic_or_latino,1,600.5,1,168,completed planned treatment,6,1,0,1.0,N,N,N,
ACNS0332,S0145,ARM1,5.72,male,white,not_hispanic_or_latino,1,602.7,1,168,completed planned treatment,6,0,0,1.0,N,N,N,
ACNS0332,S0146,ARM2,9.99,female,white,not_hispanic_or_latino,1,603.8,1,168,completed planned treatment,6,1,0,1.0,N,N,Y,656
ACNS0332,S0147,ARM2,5.91,male,white,not_hispanic_or_latino,1,612.1,1,168,completed planned treatment,6,1,0,1.0,N,N,N,
ACNS0332,S0148,ARM2,12.5,female,white,hispanic_or_latino,1,615.2,1,26,adverse event (registry discontinuation rate),1,1,0,1.0,N,N,N,
ACNS0332,S0149,ARM1,9.45,female,white,not_hispanic_or_latino,1,616.5,1,120,disease progression,5,0,0,1.0,Y,Y,N,
ACNS0332,S0150,ARM2,9.71,male,white,not_hispanic_or_latino,1,617.5,1,168,completed planned treatment,6,1,0,1.0,Y,Y,N,
ACNS0332,S0151,ARM2,15.17,female,white,not_hispanic_or_latino,1,618.6,1,168,completed planned treatment,6,0,0,1.0,N,N,N,
ACNS0332,S0152,ARM1,12.3,female,white,not_hispanic_or_latino,1,622.3,1,168,completed planned treatment,6,1,0,1.0,N,N,N,
ACNS0332,S0153,ARM2,14.07,male,other,not_hispanic_or_latino,1,627.3,1,33,"withdrawal (subject, loss to follow-up or physician decision)",2,1,0,1.0,Y,Y,N,
ACNS0332,S0154,ARM2,11.12,male,white,hispanic_or_latino,1,629.4,1,168,completed planned treatment,6,1,0,1.0,N,N,N,
ACNS0332,S0155,ARM1,5.11,male,white,not_hispanic_or_latino,1,631.4,1,19,disease progression,1,0,0,1.0,N,N,N,
ACNS0332,S0156,ARM1,10.67,male,white,not_hispanic_or_latino,1,632.5,1,168,completed planned treatment,6,0,0,1.0,N,N,N,
ACNS0332,S0157,ARM2,13.19,male,white,not_hispanic_or_latino,1,636.0,1,73,death,3,1,0,1.0,Y,Y,Y,73
ACNS0332,S0158,ARM2,14.01,female,white,not_hispanic_or_latino,1,640.9,1,163,disease progression,6,2,0,1.0,Y,Y,N,
ACNS0332,S0159,ARM2,7.38,male,white,not_hispanic_or_latino,1,652.7,1,168,completed planned treatment,6,0,0,1.0,N,N,N,
ACNS0332,S0160,ARM1,8.76,female,white,not_hispanic_or_latino,1,661.3,1,168,completed planned treatment,6,2,0,1.0,Y,Y,N,
ACNS0332,S0161,ARM2,8.72,female,white,not_hispanic_or_latino,1,662.3,1,168,completed planned treatment,6,0,0,1.0,N,N,N,
ACNS0332,S0162,ARM2,4.11,female,white,not_hispanic_or_latino,1,666.4,1,168,completed planned treatment,6,2,0,1.0,Y,Y,N,
ACNS0332,S0163,ARM1,13.94,female,white,not_hispanic_or_latino,1,673.4,1,168,completed planned treatment,6,2,0,1.0,N,N,N,
ACNS0332,S0164,ARM2,5.33,male,white,not_hispanic_or_latino,1,677.1,1,168,completed planned treatment,6,0,0,1.0,Y,Y,N,
ACNS0332,S0165,ARM2,16.69,male,white,not_hispanic_or_latino,1,677.7,1,168,completed planned treatment,6,4,0,1.0,Y,Y,N,
ACNS0332,S0166,ARM1,6.94,female,white,not_hispanic_or_latino,1,681.1,1,168,completed planned treatment,6,2,0,1.0,N,N,N,
ACNS0332,S0167,ARM1,12.44,female,white,not_hispanic_or_latino,1,682.8,1,159,"withdrawal (subject, loss to follow-up or physician decision)",6,3,0,1.0,N,N,Y,350
ACNS0332,S0168,ARM2,10.08,female,white,hispanic_or_latino,1,691.7,1,168,completed planned treatment,6,2,0,1.0,Y,Y,N,
ACNS0332,S0169,ARM2,11.48,male,white,not_hispanic_or_latino,1,692.1,1,168,completed planned treatment,6,0,0,1.0,N,N,N,
ACNS0332,S0170,ARM2,10.22,female,white,not_hispanic_or_latino,1,693.0,1,168,completed planned treatment,6,1,0,1.0,N,N,Y,488
ACNS0332,S0171,ARM1,8.68,female,white,not_hispanic_or_latino,1,693.9,1,168,completed planned treatment,6,2,0,1.0,Y,Y,N,
ACNS0332,S0172,ARM1,4.24,female,white,not_hispanic_or_latino,1,696.3,1,168,completed planned treatment,6,0,0,1.0,N,N,N,
ACNS0332,S0173,ARM1,11.76,male,white,not_hispanic_or_latino,1,708.9,1,168,completed planned treatment,6,0,0,1.0,N,N,N,
ACNS0332,S0174,ARM1,9.69,male,white,not_hispanic_or_latino,1,711.5,1,73,disease progression,3,0,0,1.0,N,N,N,
ACNS0332,S0175,ARM2,11.44,male,white,hispanic_or_latino,1,725.6,1,168,completed planned treatment,6,0,0,1.0,Y,Y,N,
ACNS0332,S0176,ARM2,11.76,male,white,not_hispanic_or_latino,1,727.7,1,168,completed planned treatment,6,0,0,1.0,Y,Y,N,
ACNS0332,S0177,ARM2,7.04,female,white,not_hispanic_or_latino,1,733.1,1,168,completed planned treatment,6,2,0,1.0,Y,Y,N,
ACNS0332,S0178,ARM1,7.32,male,white,not_hispanic_or_latino,1,740.3,1,168,completed planned treatment,6,1,0,1.0,N,N,N,
ACNS0332,S0179,ARM2,9.0,male,white,not_hispanic_or_latino,1,741.9,1,168,completed planned treatment,6,1,0,1.0,Y,Y,N,
ACNS0332,S0180,ARM1,8.41,male,white,not_hispanic_or_latino,1,747.1,1,168,completed planned treatment,6,1,0,1.0,Y,Y,N,
ACNS0332,S0181,ARM1,10.2,male,black_or_african_american,hispanic_or_latino,1,747.9,1,168,completed planned treatment,6,1,0,1.0,Y,Y,N,
ACNS0332,S0182,ARM2,10.01,female,white,not_hispanic_or_latino,1,750.6,1,168,completed planned treatment,6,1,0,1.0,N,N,N,
ACNS0332,S0183,ARM1,8.19,female,white,not_hispanic_or_latino,1,751.2,1,168,completed planned treatment,6,1,0,1.0,Y,Y,N,
ACNS0332,S0184,ARM2,12.65,male,asian,not_hispanic_or_latino,1,753.4,1,168,completed planned treatment,6,2,0,1.0,Y,Y,N,
ACNS0332,S0185,ARM2,11.04,male,white,not_hispanic_or_latino,1,756.1,1,168,completed planned treatment,6,0,0,1.0,Y,Y,N,
ACNS0332,S0186,ARM1,18.23,male,white,not_hispanic_or_latino,1,763.7,1,168,completed planned treatment,6,1,0,1.0,Y,Y,N,
ACNS0332,S0187,ARM1,12.11,male,white,not_hispanic_or_latino,1,766.4,1,168,completed planned treatment,6,1,0,1.0,N,N,N,
ACNS0332,S0188,ARM2,12.62,male,white,not_hispanic_or_latino,1,771.4,1,168,completed planned treatment,6,2,0,1.0,Y,Y,N,
ACNS0332,S0189,ARM2,6.59,male,white,not_hispanic_or_latino,1,774.0,1,168,completed planned treatment,6,1,0,1.0,Y,Y,N,
ACNS0332,S0190,ARM1,13.06,female,white,not_hispanic_or_latino,1,785.2,1,168,completed planned treatment,6,2,0,1.0,N,N,N,
ACNS0332,S0191,ARM1,8.95,male,white,hispanic_or_latino,1,796.3,1,168,completed planned treatment,6,2,0,1.0,N,N,N,
ACNS0332,S0192,ARM1,7.41,male,black_or_african_american,not_hispanic_or_latino,1,804.3,1,168,completed planned treatment,6,2,0,1.0,N,N,N,
ACNS0332,S0193,ARM2,8.5,female,white,not_hispanic_or_latino,1,805.4,1,168,completed planned treatment,6,1,0,1.0,N,N,N,
ACNS0332,S0194,ARM1,13.47,male,white,not_hispanic_or_latino,1,805.7,1,160,disease progression,6,0,0,1.0,Y,Y,N,
ACNS0332,S0195,ARM1,8.68,male,white,hispanic_or_latino,1,807.8,1,168,completed planned treatment,6,2,0,1.0,N,N,Y,443
ACNS0332,S0196,ARM2,11.6,male,white,not_hispanic_or_latino,1,807.8,1,58,adverse event (registry discontinuation rate),3,0,0,1.0,N,N,N,
ACNS0332,S0197,ARM2,8.74,male,white,not_hispanic_or_latino,1,808.6,1,168,completed planned treatment,6,0,0,1.0,N,N,N,
ACNS0332,S0198,ARM2,7.55,female,american_indian_or_alaska_native,not_hispanic_or_latino,1,814.6,1,152,disease progression,6,1,0,1.0,Y,Y,N,
ACNS0332,S0199,ARM2,5.42,male,other,not_hispanic_or_latino,1,830.6,1,30,"withdrawal (subject, loss to follow-up or physician decision)",2,0,0,1.0,N,N,N,
ACNS0332,S0200,ARM2,4.33,female,native_hawaiian_or_other_pacific_islander,not_hispanic_or_latino,1,831.6,1,168,completed planned treatment,6,2,0,1.0,Y,Y,N,
ACNS0332,S0201,ARM1,10.05,male,white,not_hispanic_or_latino,1,833.8,1,168,completed planned treatment,6,2,0,1.0,Y,Y,N,
ACNS0332,S0202,ARM2,3.79,female,white,hispanic_or_latino,1,833.9,1,168,completed planned treatment,6,0,0,1.0,N,N,N,
ACNS0332,S0203,ARM2,6.59,male,black_or_african_american,not_hispanic_or_latino,1,840.3,1,168,completed planned treatment,6,2,0,1.0,N,N,Y,315
ACNS0332,S0204,ARM1,8.31,female,white,not_hispanic_or_latino,1,843.9,1,168,completed planned treatment,6,0,0,1.0,N,N,N,
ACNS0332,S0205,ARM2,12.33,male,white,not_hispanic_or_latino,1,846.1,1,24,disease progression,1,0,0,1.0,N,N,N,
ACNS0332,S0206,ARM2,15.23,female,white,not_hispanic_or_latino,1,847.6,1,168,completed planned treatment,6,1,0,1.0,N,N,N,
ACNS0332,S0207,ARM2,10.41,female,white,not_hispanic_or_latino,1,849.1,1,17,"withdrawal (subject, loss to follow-up or physician decision)",1,2,0,1.0,Y,Y,N,
ACNS0332,S0208,ARM1,13.83,male,white,not_hispanic_or_latino,1,850.0,1,168,completed planned treatment,6,2,0,1.0,Y,Y,N,
ACNS0332,S0209,ARM1,10.69,male,white,not_hispanic_or_latino,1,855.3,1,168,completed planned treatment,6,4,0,1.0,Y,Y,N,
ACNS0332,S0210,ARM2,11.45,male,white,not_hispanic_or_latino,1,857.9,1,168,completed planned treatment,6,0,0,1.0,Y,Y,N,
ACNS0332,S0211,ARM2,8.07,male,white,not_hispanic_or_latino,1,858.8,1,168,completed planned treatment,6,2,0,1.0,Y,Y,N,
ACNS0332,S0212,ARM1,8.91,female,white,not_hispanic_or_latino,1,866.8,1,168,completed planned treatment,6,1,0,1.0,N,N,N,
ACNS0332,S0213,ARM1,12.36,female,white,not_hispanic_or_latino,1,868.0,1,168,completed planned treatment,6,1,0,1.0,N,N,N,
ACNS0332,S0214,ARM2,14.76,male,white,not_hispanic_or_latino,1,872.6,1,120,"withdrawal (subject, loss to follow-up or physician decision)",5,0,0,1.0,N,N,N,
ACNS0332,S0215,ARM2,5.69,male,white,not_hispanic_or_latino,1,875.2,1,138,disease progression,5,0,0,1.0,N,N,N,
ACNS0332,S0216,ARM2,6.58,male,white,not_hispanic_or_latino,1,893.5,1,104,disease progression,4,0,0,1.0,N,N,N,
ACNS0332,S0217,ARM2,8.03,male,white,not_hispanic_or_latino,1,909.2,1,144,disease progression,6,2,0,1.0,Y,Y,N,
ACNS0332,S0218,ARM2,12.82,female,white,not_hispanic_or_latino,1,919.1,1,39,"withdrawal (subject, loss to follow-up or physician decision)",2,0,0,1.0,N,N,N,
ACNS0332,S0219,ARM1,7.52,female,white,not_hispanic_or_latino,1,925.0,1,168,completed planned treatment,6,0,0,1.0,N,N,N,
ACNS0332,S0220,ARM2,11.53,female,white,hispanic_or_latino,1,940.8,1,168,completed planned treatment,6,0,0,1.0,N,N,N,
ACNS0332,S0221,ARM2,9.64,male,white,not_hispanic_or_latino,1,942.7,1,13,disease progression,1,0,0,1.0,Y,Y,N,
ACNS0332,S0222,ARM1,12.2,male,white,not_hispanic_or_latino,1,944.3,1,34,"withdrawal (subject, loss to follow-up or physician decision)",2,1,0,1.0,N,N,N,
ACNS0332,S0223,ARM1,13.52,male,white,hispanic_or_latino,1,944.5,1,168,completed planned treatment,6,1,0,1.0,Y,Y,N,
ACNS0332,S0224,ARM1,12.21,female,white,not_hispanic_or_latino,1,948.0,1,168,completed planned treatment,6,0,0,1.0,N,N,N,
ACNS0332,S0225,ARM1,11.46,female,white,not_hispanic_or_latino,1,959.8,1,168,completed planned treatment,6,0,0,1.0,N,N,N,
ACNS0332,S0226,ARM1,9.54,female,white,not_hispanic_or_latino,1,960.0,1,168,completed planned treatment,6,1,0,1.0,N,N,N,
ACNS0332,S0227,ARM1,10.95,male,white,not_hispanic_or_latino,1,964.3,1,168,completed planned treatment,6,2,0,1.0,N,N,N,
ACNS0332,S0228,ARM2,8.74,female,white,not_hispanic_or_latino,1,965.9,1,48,disease progression,2,1,0,1.0,Y,Y,N,
ACNS0332,S0229,ARM2,8.64,male,white,hispanic_or_latino,1,965.9,1,168,completed planned treatment,6,0,0,1.0,Y,Y,N,
ACNS0332,S0230,ARM2,13.32,male,white,hispanic_or_latino,1,968.5,1,168,completed planned treatment,6,2,0,1.0,Y,Y,N,
ACNS0332,S0231,ARM1,9.41,male,white,not_hispanic_or_latino,1,971.3,1,168,completed planned treatment,6,0,0,1.0,N,N,N,
ACNS0332,S0232,ARM1,7.49,female,white,not_hispanic_or_latino,1,973.4,1,168,completed planned treatment,6,1,0,1.0,N,N,N,
ACNS0332,S0233,ARM2,10.71,male,american_indian_or_alaska_native,not_hispanic_or_latino,1,981.7,1,168,completed planned treatment,6,2,0,1.0,N,N,N,
ACNS0332,S0234,ARM1,9.58,male,white,not_hispanic_or_latino,1,986.8,1,83,"withdrawal (subject, loss to follow-up or physician decision)",3,2,0,1.0,N,N,N,
ACNS0332,S0235,ARM1,13.95,male,black_or_african_american,not_hispanic_or_latino,1,988.5,1,168,completed planned treatment,6,1,0,1.0,N,N,N,
ACNS0332,S0236,ARM2,16.91,male,white,not_hispanic_or_latino,1,992.6,1,168,completed planned treatment,6,2,0,1.0,Y,Y,N,
ACNS0332,S0237,ARM1,11.22,female,white,not_hispanic_or_latino,1,997.7,1,122,adverse event (registry discontinuation rate),5,1,0,1.0,N,N,N,
ACNS0332,S0238,ARM1,12.21,female,white,not_hispanic_or_latino,1,1004.5,1,168,completed planned treatment,6,1,0,1.0,N,N,N,
ACNS0332,S0239,ARM1,10.32,female,white,not_hispanic_or_latino,1,1009.5,1,168,completed planned treatment,6,3,0,1.0,Y,Y,N,
ACNS0332,S0240,ARM2,7.26,female,white,not_hispanic_or_latino,1,1023.4,1,168,completed planned treatment,6,0,0,1.0,N,N,N,
ACNS0332,S0241,ARM2,9.9,female,white,hispanic_or_latino,1,1026.2,1,168,completed planned treatment,6,0,0,1.0,N,N,N,
ACNS0332,S0242,ARM1,12.14,male,white,not_hispanic_or_latino,1,1036.0,1,25,disease progression,1,1,0,1.0,N,N,N,
ACNS0332,S0243,ARM2,9.32,male,white,not_hispanic_or_latino,1,1036.8,1,168,completed planned treatment,6,0,0,1.0,N,N,N,
ACNS0332,S0244,ARM1,11.91,female,white,not_hispanic_or_latino,1,1036.8,1,168,completed planned treatment,6,2,0,1.0,Y,Y,Y,567
ACNS0332,S0245,ARM1,8.87,male,white,not_hispanic_or_latino,1,1043.2,1,168,completed planned treatment,6,2,0,1.0,Y,Y,N,
ACNS0332,S0246,ARM2,12.76,female,white,not_hispanic_or_latino,1,1044.8,1,168,completed planned treatment,6,1,0,1.0,N,N,N,
ACNS0332,S0247,ARM2,6.12,male,white,not_hispanic_or_latino,1,1048.2,1,168,completed planned treatment,6,0,0,1.0,Y,Y,N,
ACNS0332,S0248,ARM1,9.76,female,white,not_hispanic_or_latino,1,1051.3,1,168,completed planned treatment,6,0,0,1.0,Y,Y,N,
ACNS0332,S0249,ARM2,10.11,male,white,not_hispanic_or_latino,1,1055.6,1,168,completed planned treatment,6,3,0,1.0,Y,Y,Y,269
ACNS0332,S0250,ARM1,10.63,male,black_or_african_american,not_hispanic_or_latino,1,1056.5,1,24,adverse event (registry discontinuation rate),1,1,0,1.0,Y,Y,N,
ACNS0332,S0251,ARM1,10.0,male,white,not_hispanic_or_latino,1,1057.5,1,168,completed planned treatment,6,2,0,1.0,Y,Y,N,
ACNS0332,S0252,ARM1,10.31,male,black_or_african_american,not_hispanic_or_latino,1,1061.9,1,63,"withdrawal (subject, loss to follow-up or physician decision)",3,1,0,1.0,Y,Y,N,
ACNS0332,S0253,ARM2,11.95,male,white,not_hispanic_or_latino,1,1062.0,1,168,completed planned treatment,6,0,0,1.0,N,N,N,
ACNS0332,S0254,ARM2,12.36,male,white,not_hispanic_or_latino,1,1066.1,1,168,completed planned treatment,6,2,0,1.0,N,N,N,
ACNS0332,S0255,ARM2,11.37,male,white,not_hispanic_or_latino,1,1067.3,1,168,completed planned treatment,6,0,0,1.0,N,N,N,
ACNS0332,S0256,ARM1,13.42,female,white,hispanic_or_latino,1,1069.8,1,168,completed planned treatment,6,1,0,1.0,N,N,N,
ACNS0332,S0257,ARM2,10.17,male,white,not_hispanic_or_latino,1,1077.5,1,168,completed planned treatment,6,0,0,1.0,N,N,N,
ACNS0332,S0258,ARM2,8.95,female,white,not_hispanic_or_latino,1,1081.1,1,69,disease progression,3,0,0,1.0,N,N,N,
ACNS0332,S0259,ARM1,13.87,female,white,hispanic_or_latino,1,1082.0,1,20,disease progression,1,2,0,1.0,Y,Y,N,
ACNS0332,S0260,ARM1,14.89,male,white,not_hispanic_or_latino,1,1084.3,1,168,completed planned treatment,6,0,0,1.0,N,N,N,
ACNS0332,S0261,ARM2,10.72,male,white,not_hispanic_or_latino,1,1092.2,1,70,adverse event (registry discontinuation rate),3,1,0,1.0,N,N,N,
ACNS0332,S0262,ARM2,8.33,male,white,not_hispanic_or_latino,1,1093.8,1,64,disease progression,3,1,0,1.0,N,N,N,
ACNS0332,S0263,ARM1,10.41,male,white,not_hispanic_or_latino,1,1095.6,1,135,death,5,1,0,1.0,Y,Y,Y,135
ACNS0332,S0264,ARM1,15.42,female,white,not_hispanic_or_latino,1,1095.7,1,168,completed planned treatment,6,1,0,1.0,N,N,N,
ACNS0332,S0265,ARM1,11.51,male,white,hispanic_or_latino,1,1102.3,1,168,completed planned treatment,6,1,0,1.0,Y,Y,N,
ACNS0332,S0266,ARM1,11.16,female,white,not_hispanic_or_latino,1,1107.2,1,168,completed planned treatment,6,2,0,1.0,Y,Y,N,
ACNS0332,S0267,ARM2,7.14,male,white,not_hispanic_or_latino,1,1108.1,1,82,"withdrawal (subject, loss to follow-up or physician decision)",3,0,0,1.0,N,N,Y,363
ACNS0332,S0268,ARM2,8.78,female,white,not_hispanic_or_latino,1,1108.9,1,168,completed planned treatment,6,0,0,1.0,N,N,N,
ACNS0332,S0269,ARM2,13.51,male,white,not_hispanic_or_latino,1,1117.0,1,143,disease progression,6,1,0,1.0,N,N,N,
ACNS0332,S0270,ARM2,11.82,male,white,not_hispanic_or_latino,1,1125.2,1,168,completed planned treatment,6,0,0,1.0,Y,Y,N,
ACNS0332,S0271,ARM2,10.84,female,white,not_hispanic_or_latino,1,1132.6,1,168,completed planned treatment,6,1,0,1.0,N,N,N,
ACNS0332,S0272,ARM1,14.95,male,white,not_hispanic_or_latino,1,1141.4,1,151,disease progression,6,1,0,1.0,Y,Y,N,
ACNS0332,S0273,ARM2,9.54,female,white,hispanic_or_latino,1,1150.6,1,164,disease progression,6,0,0,1.0,N,N,N,
ACNS0332,S0274,ARM1,12.54,female,white,not_hispanic_or_latino,1,1151.6,1,168,completed planned treatment,6,0,0,1.0,N,N,N,
ACNS0332,S0275,ARM1,7.38,female,white,not_hispanic_or_latino,1,1155.6,1,73,adverse event (registry discontinuation rate),3,0,0,1.0,N,N,N,
ACNS0332,S0276,ARM2,8.43,male,black_or_african_american,not_hispanic_or_latino,1,1157.3,1,168,completed planned treatment,6,1,0,1.0,N,N,N,
ACNS0332,S0277,ARM1,7.2,male,white,not_hispanic_or_latino,1,1158.4,1,111,adverse event (registry discontinuation rate),4,2,0,1.0,N,N,N,
ACNS0332,S0278,ARM2,9.86,male,white,not_hispanic_or_latino,1,1161.5,1,104,adverse event (registry discontinuation rate),4,2,0,1.0,Y,Y,N,
ACNS0332,S0279,ARM1,9.69,male,white,not_hispanic_or_latino,1,1162.4,1,168,completed planned treatment,6,3,0,1.0,Y,Y,N,
ACNS0332,S0280,ARM1,6.65,male,white,not_hispanic_or_latino,1,1172.2,1,63,disease progression,3,1,0,1.0,Y,Y,N,
ACNS0332,S0281,ARM1,14.0,female,white,not_hispanic_or_latino,1,1173.6,1,168,completed planned treatment,6,1,0,1.0,N,N,N,
ACNS0332,S0282,ARM2,13.61,male,white,not_hispanic_or_latino,1,1175.1,1,168,completed planned treatment,6,1,0,1.0,Y,Y,Y,606
ACNS0332,S0283,ARM1,5.33,female,white,not_hispanic_or_latino,1,1177.0,1,168,completed planned treatment,6,1,0,1.0,Y,Y,N,
ACNS0332,S0284,ARM2,17.18,female,white,not_hispanic_or_latino,1,1182.2,1,64,disease progression,3,0,0,1.0,N,N,N,
ACNS0332,S0285,ARM2,8.32,male,white,not_hispanic_or_latino,1,1183.7,1,168,completed planned treatment,6,2,0,1.0,Y,Y,N,
ACNS0332,S0286,ARM2,6.86,male,white,not_hispanic_or_latino,1,1186.7,1,168,completed planned treatment,6,0,0,1.0,N,N,N,
ACNS0332,S0287,ARM1,12.02,female,white,hispanic_or_latino,1,1190.6,1,98,disease progression,4,1,0,1.0,N,N,N,
ACNS0332,S0288,ARM1,15.92,female,white,not_hispanic_or_latino,1,1194.6,1,11,"withdrawal (subject, loss to follow-up or physician decision)",1,0,0,1.0,Y,Y,N,
ACNS0332,S0289,ARM1,7.92,male,white,not_hispanic_or_latino,1,1198.0,1,168,completed planned treatment,6,0,0,1.0,N,N,N,
ACNS0332,S0290,ARM2,13.09,male,white,not_hispanic_or_latino,1,1199.4,1,13,adverse event (registry discontinuation rate),1,1,0,1.0,Y,Y,N,
ACNS0332,S0291,ARM2,12.91,male,white,not_hispanic_or_latino,1,1201.1,1,168,completed planned treatment,6,3,0,1.0,N,N,N,
ACNS0332,S0292,ARM2,8.28,male,black_or_african_american,not_hispanic_or_latino,1,1206.7,1,162,disease progression,6,2,0,1.0,N,N,N,
ACNS0332,S0293,ARM1,12.12,male,white,not_hispanic_or_latino,1,1207.7,1,168,completed planned treatment,6,2,0,1.0,N,N,N,
ACNS0332,S0294,ARM1,11.74,female,white,not_hispanic_or_latino,1,1211.3,1,168,completed planned treatment,6,0,0,1.0,N,N,Y,723
ACNS0332,S0295,ARM2,4.95,male,white,not_hispanic_or_latino,1,1211.8,1,168,completed planned treatment,6,0,0,1.0,N,N,N,
ACNS0332,S0296,ARM1,9.86,male,white,hispanic_or_latino,1,1212.5,1,168,completed planned treatment,6,1,0,1.0,N,N,N,
ACNS0332,S0297,ARM2,13.41,female,white,not_hispanic_or_latino,1,1215.1,1,168,completed planned treatment,6,2,0,1.0,Y,Y,N,
ACNS0332,S0298,ARM2,5.49,male,white,not_hispanic_or_latino,1,1220.5,1,168,completed planned treatment,6,1,0,1.0,N,N,N,
ACNS0332,S0299,ARM1,10.1,male,white,not_hispanic_or_latino,1,1222.6,1,14,disease progression,1,0,0,1.0,N,N,N,
ACNS0332,S0300,ARM2,8.86,male,white,not_hispanic_or_latino,1,1225.5,1,112,disease progression,4,1,0,1.0,N,N,N,
ACNS0332,S0301,ARM1,8.94,male,white,not_hispanic_or_latino,1,1226.6,1,139,adverse event (registry discontinuation rate),5,3,0,1.0,Y,Y,N,
ACNS0332,S0302,ARM1,4.63,female,unknown_or_not_reported,not_hispanic_or_latino,1,1235.2,1,168,completed planned treatment,6,0,0,1.0,N,N,N,
ACNS0332,S0303,ARM1,11.29,male,white,not_hispanic_or_latino,1,1238.3,1,24,disease progression,1,0,0,1.0,Y,Y,N,
ACNS0332,S0304,ARM1,12.67,male,white,not_hispanic_or_latino,1,1244.0,1,43,"withdrawal (subject, loss to follow-up or physician decision)",2,2,0,1.0,Y,Y,N,
ACNS0332,S0305,ARM1,8.31,female,white,hispanic_or_latino,1,1244.7,1,12,disease progression,1,0,0,1.0,N,N,N,
ACNS0332,S0306,ARM2,10.43,female,asian,not_hispanic_or_latino,1,1248.5,1,69,"withdrawal (subject, loss to follow-up or physician decision)",3,1,0,1.0,Y,Y,N,
ACNS0332,S0307,ARM1,10.65,male,white,not_hispanic_or_latino,1,1254.5,1,168,completed planned treatment,6,1,0,1.0,N,N,N,
ACNS0332,S0308,ARM1,7.74,female,white,not_hispanic_or_latino,1,1264.5,1,20,adverse event (registry discontinuation rate),1,0,0,1.0,Y,Y,N,
ACNS0332,S0309,ARM1,19.42,male,white,not_hispanic_or_latino,1,1266.2,1,168,completed planned treatment,6,1,0,1.0,Y,Y,N,
ACNS0332,S0310,ARM2,8.73,male,white,not_hispanic_or_latino,1,1267.3,1,168,completed planned treatment,6,3,0,1.0,Y,Y,N,
ACNS0332,S0311,ARM1,10.0,female,white,not_hispanic_or_latino,1,1271.3,1,168,completed planned treatment,6,1,0,1.0,Y,Y,N,
ACNS0332,S0312,ARM2,10.93,male,white,not_hispanic_or_latino,1,1272.0,1,168,completed planned treatment,6,1,0,1.0,N,N,N,
ACNS0332,S0313,ARM2,12.96,male,white,not_hispanic_or_latino,1,1274.2,1,168,completed planned treatment,6,0,0,1.0,N,N,N,
ACNS0332,S0314,ARM2,16.81,female,white,not_hispanic_or_latino,1,1274.3,1,168,completed planned treatment,6,2,0,1.0,Y,Y,N,
ACNS0332,S0315,ARM1,13.57,female,white,not_hispanic_or_latino,1,1280.3,1,168,completed planned treatment,6,1,0,1.0,N,N,N,
ACNS0332,S0316,ARM1,7.78,male,white,not_hispanic_or_latino,1,1288.5,1,162,disease progression,6,2,0,1.0,Y,Y,N,
ACNS0332,S0317,ARM2,9.94,male,white,hispanic_or_latino,1,1291.2,1,168,completed planned treatment,6,0,0,1.0,Y,Y,N,
ACNS0332,S0318,ARM1,14.06,male,white,not_hispanic_or_latino,1,1292.4,1,168,completed planned treatment,6,1,0,1.0,Y,Y,N,
ACNS0332,S0319,ARM1,9.86,male,white,not_hispanic_or_latino,1,1292.6,1,168,completed planned treatment,6,1,0,1.0,Y,Y,N,
ACNS0332,S0320,ARM1,12.79,male,white,not_hispanic_or_latino,1,1293.1,1,168,completed planned treatment,6,0,0,1.0,N,N,N,
ACNS0332,S0321,ARM1,13.13,male,black_or_african_american,not_hispanic_or_latino,1,1294.2,1,168,completed planned treatment,6,0,0,1.0,N,N,N,
ACNS0332,S0322,ARM1,11.29,male,black_or_african_american,not_hispanic_or_latino,1,1295.6,1,98,"withdrawal (subject, loss to follow-up or physician decision)",4,0,0,1.0,N,N,N,
ACNS0332,S0323,ARM1,9.01,male,white,not_hispanic_or_latino,1,1296.8,1,100,disease progression,4,1,0,1.0,N,N,N,
ACNS0332,S0324,ARM2,11.2,female,white,not_hispanic_or_latino,1,1300.1,1,92,disease progression,4,1,0,1.0,Y,Y,N,
ACNS0332,S0325,ARM2,10.56,male,white,not_hispanic_or_latino,1,1300.5,1,168,completed planned treatment,6,3,0,1.0,Y,Y,N,
ACNS0332,S0326,ARM1,7.3,male,white,not_hispanic_or_latino,1,1304.0,1,168,completed planned treatment,6,0,0,1.0,N,N,N,
ACNS0332,S0327,ARM1,11.24,female,white,not_hispanic_or_latino,1,1311.8,1,130,disease progression,5,0,0,1.0,N,N,N,
ACNS0332,S0328,ARM1,7.22,male,asian,not_hispanic_or_latino,1,1312.8,1,168,completed planned treatment,6,1,0,1.0,N,N,N,
ACNS0332,S0329,ARM2,11.83,male,white,not_hispanic_or_latino,1,1315.8,1,168,completed planned treatment,6,2,0,1.0,Y,Y,N,
ACNS0332,S0330,ARM2,10.47,female,white,not_hispanic_or_latino,1,1332.5,1,19,"withdrawal (subject, loss to follow-up or physician decision)",1,2,0,1.0,Y,Y,N,
ACNS0332,S0331,ARM2,13.51,female,black_or_african_american,not_hispanic_or_latino,1,1337.9,1,168,completed planned treatment,6,1,0,1.0,Y,Y,N,
ACNS0332,S0332,ARM1,14.8,male,black_or_african_american,hispanic_or_latino,1,1340.7,1,168,completed planned treatment,6,0,0,1.0,N,N,N,
ACNS0332,S0333,ARM2,13.36,male,white,hispanic_or_latino,1,1341.7,1,168,completed planned treatment,6,3,0,1.0,Y,Y,N,
ACNS0332,S0334,ARM1,18.01,male,white,not_hispanic_or_latino,1,1341.7,1,168,completed planned treatment,6,1,0,1.0,N,N,Y,656
ACNS0332,S0335,ARM1,12.91,female,white,not_hispanic_or_latino,1,1343.0,1,168,completed planned treatment,6,3,0,1.0,Y,Y,N,
ACNS0332,S0336,ARM1,15.88,male,white,not_hispanic_or_latino,1,1348.2,1,168,completed planned treatment,6,1,0,1.0,Y,Y,N,
ACNS0332,S0337,ARM2,8.04,male,white,not_hispanic_or_latino,1,1356.4,1,5,disease progression,1,0,0,1.0,N,N,N,
ACNS0332,S0338,ARM2,11.69,male,white,hispanic_or_latino,1,1359.5,1,168,completed planned treatment,6,1,0,1.0,N,N,N,
ACNS0332,S0339,ARM2,9.98,male,other,not_hispanic_or_latino,1,1364.3,1,168,completed planned treatment,6,1,0,1.0,N,N,N,
ACNS0332,S0340,ARM2,11.31,female,black_or_african_american,not_hispanic_or_latino,1,1368.2,1,168,completed planned treatment,6,0,0,1.0,N,N,N,
ACNS0332,S0341,ARM2,15.09,male,white,not_hispanic_or_latino,1,1374.0,1,168,completed planned treatment,6,2,0,1.0,Y,Y,N,
ACNS0332,S0342,ARM2,17.31,male,white,hispanic_or_latino,1,1378.3,1,168,completed planned treatment,6,0,0,1.0,N,N,N,
ACNS0332,S0343,ARM2,9.54,male,white,not_hispanic_or_latino,1,1390.9,1,168,completed planned treatment,6,0,0,1.0,N,N,N,
ACNS0332,S0344,ARM2,12.52,female,white,not_hispanic_or_latino,1,1391.8,1,168,completed planned treatment,6,0,0,1.0,N,N,N,
ACNS0332,S0345,ARM1,12.13,female,white,not_hispanic_or_latino,1,1393.9,1,168,completed planned treatment,6,3,0,1.0,N,N,N,
ACNS0332,S0346,ARM1,6.51,female,white,not_hispanic_or_latino,1,1396.1,1,111,disease progression,4,2,0,1.0,N,N,N,
ACNS0332,S0347,ARM1,10.07,male,white,not_hispanic_or_latino,1,1397.4,1,62,death,3,0,0,1.0,N,N,Y,62
ACNS0332,S0348,ARM2,13.07,male,white,not_hispanic_or_latino,1,1401.9,1,136,death,5,2,0,1.0,N,N,Y,136
ACNS0332,S0349,ARM1,8.47,male,white,unknown_or_not_reported,1,1405.2,1,168,completed planned treatment,6,0,0,1.0,N,N,N,
ACNS0332,S0350,ARM1,16.33,male,white,hispanic_or_latino,1,1407.5,1,168,completed planned treatment,6,2,0,1.0,Y,Y,N,
ACNS0332,S0351,ARM2,11.84,male,white,not_hispanic_or_latino,1,1408.0,1,7,"withdrawal (subject, loss to follow-up or physician decision)",1,0,0,1.0,Y,Y,N,
ACNS0332,S0352,ARM1,8.71,female,white,not_hispanic_or_latino,1,1410.7,1,168,completed planned treatment,6,0,0,1.0,Y,Y,N,
ACNS0332,S0353,ARM2,8.86,male,white,not_hispanic_or_latino,1,1415.1,1,167,"withdrawal (subject, loss to follow-up or physician decision)",6,0,0,1.0,N,N,N,
ACNS0332,S0354,ARM1,11.39,male,white,not_hispanic_or_latino,1,1420.7,1,168,completed planned treatment,6,0,0,1.0,N,N,N,
ACNS0332,S0355,ARM1,7.86,female,white,not_hispanic_or_latino,1,1424.1,1,168,completed planned treatment,6,0,0,1.0,N,N,N,
ACNS0332,S0356,ARM1,8.05,male,white,not_hispanic_or_latino,1,1424.6,1,168,completed planned treatment,6,1,0,1.0,Y,Y,N,
ACNS0332,S0357,ARM2,13.7,male,white,hispanic_or_latino,1,1433.6,1,84,adverse event (registry discontinuation rate),3,1,0,1.0,N,N,N,
ACNS0332,S0358,ARM2,5.92,female,white,hispanic_or_latino,1,1434.9,1,168,completed planned treatment,6,0,0,1.0,N,N,N,
ACNS0332,S0359,ARM2,15.05,male,white,not_hispanic_or_latino,1,1436.6,1,168,completed planned treatment,6,1,0,1.0,N,N,N,
ACNS0332,S0360,ARM2,13.55,female,white,not_hispanic_or_latino,1,1437.3,1,21,adverse event (registry discontinuation rate),1,0,0,1.0,N,N,N,
ACNS0332,S0361,ARM1,12.97,male,asian,not_hispanic_or_latino,1,1439.1,1,168,completed planned treatment,6,2,0,1.0,Y,Y,N,
ACNS0332,S0362,ARM2,6.98,male,black_or_african_american,hispanic_or_latino,1,1445.5,1,168,completed planned treatment,6,0,0,1.0,Y,Y,N,
ACNS0332,S0363,ARM2,7.66,male,white,not_hispanic_or_latino,1,1450.2,1,85,adverse event (registry discontinuation rate),4,1,0,1.0,Y,Y,N,
ACNS0332,S0364,ARM1,9.98,female,white,not_hispanic_or_latino,1,1451.0,1,168,completed planned treatment,6,1,0,1.0,N,N,N,
ACNS0332,S0365,ARM1,12.85,female,white,not_hispanic_or_latino,1,1451.3,1,168,completed planned treatment,6,1,0,1.0,Y,Y,N,
ACNS0332,S0366,ARM1,9.52,male,white,not_hispanic_or_latino,1,1452.2,1,168,completed planned treatment,6,0,0,1.0,N,N,N,
ACNS0332,S0367,ARM2,11.45,female,white,not_hispanic_or_latino,1,1455.5,1,168,completed planned treatment,6,0,0,1.0,N,N,N,
ACNS0332,S0368,ARM1,7.92,male,unknown_or_not_reported,not_hispanic_or_latino,1,1455.6,1,36,adverse event (registry discontinuation rate),2,1,0,1.0,Y,Y,N,
ACNS0332,S0369,ARM1,12.49,female,white,hispanic_or_latino,1,1459.9,1,168,completed planned treatment,6,3,0,1.0,N,N,N,
ACNS0332,S0370,ARM1,13.72,female,white,not_hispanic_or_latino,1,1460.8,1,168,completed planned treatment,6,1,0,1.0,Y,Y,N,
ACNS0332,S0371,ARM2,9.91,male,white,not_hispanic_or_latino,1,1465.9,1,168,completed planned treatment,6,0,0,1.0,N,N,N,
ACNS0332,S0372,ARM1,9.81,female,white,not_hispanic_or_latino,1,1479.4,1,168,completed planned treatment,6,1,0,1.0,N,N,N,
ACNS0332,S0373,ARM2,10.62,female,white,not_hispanic_or_latino,1,1480.3,1,168,completed planned treatment,6,1,0,1.0,Y,Y,N,
ACNS0332,S0374,ARM1,11.48,male,unknown_or_not_reported,not_hispanic_or_latino,1,1487.6,1,73,disease progression,3,2,0,1.0,N,N,N,
ACNS0332,S0375,ARM2,13.99,male,white,not_hispanic_or_latino,1,1494.3,1,168,completed planned treatment,6,2,0,1.0,N,N,N,
ACNS0332,S0376,ARM1,7.67,female,white,not_hispanic_or_latino,1,1497.8,1,168,completed planned treatment,6,2,0,1.0,N,N,N,
ACNS0332,S0377,ARM2,9.98,female,white,not_hispanic_or_latino,1,1497.9,1,168,completed planned treatment,6,2,0,1.0,N,N,N,
ACNS0332,S0378,ARM1,8.08,male,white,not_hispanic_or_latino,1,1498.6,1,168,completed planned treatment,6,2,0,1.0,N,N,N,
ACNS0332,S0379,ARM2,5.34,male,white,not_hispanic_or_latino,1,1501.6,1,168,completed planned treatment,6,2,0,1.0,Y,Y,N,
ACNS0332,S0380,ARM1,9.04,male,white,not_hispanic_or_latino,1,1515.5,1,58,disease progression,3,0,0,1.0,N,N,N,
ACNS0332,S0381,ARM1,10.11,male,white,not_hispanic_or_latino,1,1515.5,1,142,adverse event (registry discontinuation rate),6,1,0,1.0,Y,Y,N,
ACNS0332,S0382,ARM2,11.75,male,white,not_hispanic_or_latino,1,1516.6,1,168,completed planned treatment,6,0,0,1.0,N,N,N,
ACNS0332,S0383,ARM2,12.32,male,white,not_hispanic_or_latino,1,1520.7,1,41,disease progression,2,1,0,1.0,Y,Y,N,
ACNS0332,S0384,ARM2,8.34,male,white,not_hispanic_or_latino,1,1522.8,1,168,completed planned treatment,6,2,0,1.0,N,N,N,
ACNS0332,S0385,ARM1,8.85,female,white,not_hispanic_or_latino,1,1526.8,1,168,completed planned treatment,6,1,0,1.0,Y,Y,N,
ACNS0332,S0386,ARM2,8.01,male,white,not_hispanic_or_latino,1,1529.0,1,168,completed planned treatment,6,0,0,1.0,N,N,N,
ACNS0332,S0387,ARM1,8.3,male,black_or_african_american,not_hispanic_or_latino,1,1529.1,1,105,disease progression,4,1,0,1.0,N,N,N,
ACNS0332,S0388,ARM1,7.85,male,asian,not_hispanic_or_latino,1,1537.5,1,168,completed planned treatment,6,0,0,1.0,N,N,N,
ACNS0332,S0389,ARM2,9.43,female,white,not_hispanic_or_latino,1,1540.0,1,168,completed planned treatment,6,1,0,1.0,N,N,N,
ACNS0332,S0390,ARM1,13.17,female,white,not_hispanic_or_latino,1,1546.8,1,168,completed planned treatment,6,0,0,1.0,N,N,N,
ACNS0332,S0391,ARM2,13.58,male,white,not_hispanic_or_latino,1,1547.4,1,168,completed planned treatment,6,2,0,1.0,Y,Y,N,
ACNS0332,S0392,ARM1,11.17,female,white,not_hispanic_or_latino,1,1548.1,1,168,completed planned treatment,6,0,0,1.0,N,N,N,
ACNS0332,S0393,ARM1,5.63,female,white,hispanic_or_latino,1,1556.2,1,168,completed planned treatment,6,1,0,1.0,N,N,N,
ACNS0332,S0394,ARM2,7.75,male,white,not_hispanic_or_latino,1,1563.7,1,168,completed planned treatment,6,2,0,1.0,Y,Y,N,
ACNS0332,S0395,ARM2,4.77,male,white,not_hispanic_or_latino,1,1566.5,1,168,completed planned treatment,6,1,0,1.0,Y,Y,N,
ACNS0332,S0396,ARM2,10.83,male,white,not_hispanic_or_latino,1,1568.8,1,168,completed planned treatment,6,0,0,1.0,N,N,N,
ACNS0332,S0397,ARM1,12.34,female,white,not_hispanic_or_latino,1,1575.6,1,168,completed planned treatment,6,0,0,1.0,N,N,N,
ACNS0332,S0398,ARM2,12.47,female,white,not_hispanic_or_latino,1,1576.3,1,21,"withdrawal (subject, loss to follow-up or physician decision)",1,0,0,1.0,Y,Y,N,
ACNS0332,S0399,ARM2,10.4,male,white,not_hispanic_or_latino,1,1576.8,1,168,completed planned treatment,6,1,0,1.0,N,N,N,
ACNS0332,S0400,ARM1,10.24,male,white,not_hispanic_or_latino,1,1583.9,1,168,completed planned treatment,6,1,0,1.0,N,N,N,
