USUBJID,ARMCD,PARAMCD,PARAM,AVAL_DAYS,CNSR,EVNTDESC
S0001,ARM1,PFS,Progression-free survival (detected at assessment),168,1,censored at last tumour assessment
S0001,ARM1,OS,Overall survival (death in the simulated horizon),196,1,censored at last simulated contact
S0002,ARM2,PFS,Progression-free survival (detected at assessment),168,1,censored at last tumour assessment
S0002,ARM2,OS,Overall survival (death in the simulated horizon),714,0,death
S0003,ARM1,PFS,Progression-free survival (detected at assessment),168,1,censored at last tumour assessment
S0003,ARM1,OS,Overall survival (death in the simulated horizon),187,1,censored at last simulated contact
S0004,ARM1,PFS,Progression-free survival (detected at assessment),168,1,censored at last tumour assessment
S0004,ARM1,OS,Overall survival (death in the simulated horizon),197,1,censored at last simulated contact
S0005,ARM1,PFS,Progression-free survival (detected at assessment),168,1,censored at last tumour assessment
S0005,ARM1,OS,Overall survival (death in the simulated horizon),189,1,censored at last simulated contact
S0006,ARM1,PFS,Progression-free survival (detected at assessment),168,1,censored at last tumour assessment
S0006,ARM1,OS,Overall survival (death in the simulated horizon),181,1,censored at last simulated contact
S0007,ARM2,PFS,Progression-free survival (detected at assessment),168,1,censored at last tumour assessment
S0007,ARM2,OS,Overall survival (death in the simulated horizon),639,0,death
S0008,ARM1,PFS,Progression-free survival (detected at assessment),168,1,censored at last tumour assessment
S0008,ARM1,OS,Overall survival (death in the simulated horizon),394,0,death
S0009,ARM2,PFS,Progression-free survival (detected at assessment),168,1,censored at last tumour assessment
S0009,ARM2,OS,Overall survival (death in the simulated horizon),197,1,censored at last simulated contact
S0010,ARM2,PFS,Progression-free survival (detected at assessment),168,1,censored at last tumour assessment
S0010,ARM2,OS,Overall survival (death in the simulated horizon),186,1,censored at last simulated contact
S0011,ARM2,PFS,Progression-free survival (detected at assessment),168,1,censored at last tumour assessment
S0011,ARM2,OS,Overall survival (death in the simulated horizon),197,1,censored at last simulated contact
S0012,ARM1,PFS,Progression-free survival (detected at assessment),168,1,censored at last tumour assessment
S0012,ARM1,OS,Overall survival (death in the simulated horizon),192,1,censored at last simulated contact
S0013,ARM2,PFS,Progression-free survival (detected at assessment),88,1,censored at last tumour assessment
S0013,ARM2,OS,Overall survival (death in the simulated horizon),112,1,censored at last simulated contact
S0014,ARM2,PFS,Progression-free survival (detected at assessment),88,0,progression detected at scheduled tumour assessment
S0014,ARM2,OS,Overall survival (death in the simulated horizon),116,1,censored at last simulated contact
S0015,ARM2,PFS,Progression-free survival (detected at assessment),168,1,censored at last tumour assessment
S0015,ARM2,OS,Overall survival (death in the simulated horizon),176,1,censored at last simulated contact
S0016,ARM1,PFS,Progression-free survival (detected at assessment),168,1,censored at last tumour assessment
S0016,ARM1,OS,Overall survival (death in the simulated horizon),196,1,censored at last simulated contact
S0017,ARM1,PFS,Progression-free survival (detected at assessment),168,1,censored at last tumour assessment
S0017,ARM1,OS,Overall survival (death in the simulated horizon),185,1,censored at last simulated contact
S0018,ARM2,PFS,Progression-free survival (detected at assessment),145,0,progression detected at scheduled tumour assessment
S0018,ARM2,OS,Overall survival (death in the simulated horizon),163,1,censored at last simulated contact
S0019,ARM1,PFS,Progression-free survival (detected at assessment),78,1,censored at last tumour assessment
S0019,ARM1,OS,Overall survival (death in the simulated horizon),107,1,censored at last simulated contact
S0020,ARM2,PFS,Progression-free survival (detected at assessment),168,1,censored at last tumour assessment
S0020,ARM2,OS,Overall survival (death in the simulated horizon),198,1,censored at last simulated contact
S0021,ARM2,PFS,Progression-free survival (detected at assessment),168,1,censored at last tumour assessment
S0021,ARM2,OS,Overall survival (death in the simulated horizon),188,1,censored at last simulated contact
S0022,ARM2,PFS,Progression-free survival (detected at assessment),168,1,censored at last tumour assessment
S0022,ARM2,OS,Overall survival (death in the simulated horizon),168,1,censored at last simulated contact
S0023,ARM2,PFS,Progression-free survival (detected at assessment),168,1,censored at last tumour assessment
S0023,ARM2,OS,Overall survival (death in the simulated horizon),193,1,censored at last simulated contact
S0024,ARM2,PFS,Progression-free survival (detected at assessment),168,1,censored at last tumour assessment
S0024,ARM2,OS,Overall survival (death in the simulated horizon),197,1,censored at last simulated contact
S0025,ARM2,PFS,Progression-free survival (detected at assessment),168,1,censored at last tumour assessment
S0025,ARM2,OS,Overall survival (death in the simulated horizon),170,1,censored at last simulated contact
S0026,ARM1,PFS,Progression-free survival (detected at assessment),168,1,censored at last tumour assessment
S0026,ARM1,OS,Overall survival (death in the simulated horizon),675,0,death
S0027,ARM2,PFS,Progression-free survival (detected at assessment),168,1,censored at last tumour assessment
S0027,ARM2,OS,Overall survival (death in the simulated horizon),196,1,censored at last simulated contact
S0028,ARM2,PFS,Progression-free survival (detected at assessment),168,1,censored at last tumour assessment
S0028,ARM2,OS,Overall survival (death in the simulated horizon),262,0,death
S0029,ARM1,PFS,Progression-free survival (detected at assessment),100,1,censored at last tumour assessment
S0029,ARM1,OS,Overall survival (death in the simulated horizon),115,1,censored at last simulated contact
S0030,ARM2,PFS,Progression-free survival (detected at assessment),168,1,censored at last tumour assessment
S0030,ARM2,OS,Overall survival (death in the simulated horizon),186,1,censored at last simulated contact
S0031,ARM2,PFS,Progression-free survival (detected at assessment),34,1,censored at last tumour assessment
S0031,ARM2,OS,Overall survival (death in the simulated horizon),58,1,censored at last simulated contact
S0032,ARM1,PFS,Progression-free survival (detected at assessment),168,1,censored at last tumour assessment
S0032,ARM1,OS,Overall survival (death in the simulated horizon),178,1,censored at last simulated contact
S0033,ARM1,PFS,Progression-free survival (detected at assessment),168,1,censored at last tumour assessment
S0033,ARM1,OS,Overall survival (death in the simulated horizon),190,1,censored at last simulated contact
S0034,ARM1,PFS,Progression-free survival (detected at assessment),102,1,censored at last tumour assessment
S0034,ARM1,OS,Overall survival (death in the simulated horizon),110,1,censored at last simulated contact
S0035,ARM2,PFS,Progression-free survival (detected at assessment),168,1,censored at last tumour assessment
S0035,ARM2,OS,Overall survival (death in the simulated horizon),196,1,censored at last simulated contact
S0036,ARM1,PFS,Progression-free survival (detected at assessment),144,0,progression detected at scheduled tumour assessment
S0036,ARM1,OS,Overall survival (death in the simulated horizon),170,1,censored at last simulated contact
S0037,ARM2,PFS,Progression-free survival (detected at assessment),168,1,censored at last tumour assessment
S0037,ARM2,OS,Overall survival (death in the simulated horizon),194,1,censored at last simulated contact
S0038,ARM1,PFS,Progression-free survival (detected at assessment),168,1,censored at last tumour assessment
S0038,ARM1,OS,Overall survival (death in the simulated horizon),185,1,censored at last simulated contact
S0039,ARM1,PFS,Progression-free survival (detected at assessment),87,0,progression detected at scheduled tumour assessment
S0039,ARM1,OS,Overall survival (death in the simulated horizon),116,1,censored at last simulated contact
S0040,ARM1,PFS,Progression-free survival (detected at assessment),168,1,censored at last tumour assessment
S0040,ARM1,OS,Overall survival (death in the simulated horizon),194,1,censored at last simulated contact
S0041,ARM1,PFS,Progression-free survival (detected at assessment),59,0,progression detected at scheduled tumour assessment
S0041,ARM1,OS,Overall survival (death in the simulated horizon),88,1,censored at last simulated contact
S0042,ARM2,PFS,Progression-free survival (detected at assessment),168,1,censored at last tumour assessment
S0042,ARM2,OS,Overall survival (death in the simulated horizon),194,1,censored at last simulated contact
S0043,ARM2,PFS,Progression-free survival (detected at assessment),26,1,censored at last tumour assessment
S0043,ARM2,OS,Overall survival (death in the simulated horizon),56,1,censored at last simulated contact
S0044,ARM2,PFS,Progression-free survival (detected at assessment),168,1,censored at last tumour assessment
S0044,ARM2,OS,Overall survival (death in the simulated horizon),168,1,censored at last simulated contact
S0045,ARM2,PFS,Progression-free survival (detected at assessment),6,0,progression detected at scheduled tumour assessment
S0045,ARM2,OS,Overall survival (death in the simulated horizon),36,1,censored at last simulated contact
S0046,ARM1,PFS,Progression-free survival (detected at assessment),168,1,censored at last tumour assessment
S0046,ARM1,OS,Overall survival (death in the simulated horizon),190,1,censored at last simulated contact
S0047,ARM2,PFS,Progression-free survival (detected at assessment),168,1,censored at last tumour assessment
S0047,ARM2,OS,Overall survival (death in the simulated horizon),188,1,censored at last simulated contact
S0048,ARM2,PFS,Progression-free survival (detected at assessment),168,1,censored at last tumour assessment
S0048,ARM2,OS,Overall survival (death in the simulated horizon),180,1,censored at last simulated contact
S0049,ARM1,PFS,Progression-free survival (detected at assessment),168,1,censored at last tumour assessment
S0049,ARM1,OS,Overall survival (death in the simulated horizon),188,1,censored at last simulated contact
S0050,ARM1,PFS,Progression-free survival (detected at assessment),168,1,censored at last tumour assessment
S0050,ARM1,OS,Overall survival (death in the simulated horizon),178,0,death
S0051,ARM2,PFS,Progression-free survival (detected at assessment),21,0,progression detected at scheduled tumour assessment
S0051,ARM2,OS,Overall survival (death in the simulated horizon),49,1,censored at last simulated contact
S0052,ARM1,PFS,Progression-free survival (detected at assessment),168,1,censored at last tumour assessment
S0052,ARM1,OS,Overall survival (death in the simulated horizon),195,1,censored at last simulated contact
S0053,ARM2,PFS,Progression-free survival (detected at assessment),168,1,censored at last tumour assessment
S0053,ARM2,OS,Overall survival (death in the simulated horizon),196,1,censored at last simulated contact
S0054,ARM1,PFS,Progression-free survival (detected at assessment),168,1,censored at last tumour assessment
S0054,ARM1,OS,Overall survival (death in the simulated horizon),191,1,censored at last simulated contact
S0055,ARM2,PFS,Progression-free survival (detected at assessment),168,1,censored at last tumour assessment
S0055,ARM2,OS,Overall survival (death in the simulated horizon),176,1,censored at last simulated contact
S0056,ARM1,PFS,Progression-free survival (detected at assessment),168,1,censored at last tumour assessment
S0056,ARM1,OS,Overall survival (death in the simulated horizon),195,1,censored at last simulated contact
S0057,ARM1,PFS,Progression-free survival (detected at assessment),168,1,censored at last tumour assessment
S0057,ARM1,OS,Overall survival (death in the simulated horizon),190,1,censored at last simulated contact
S0058,ARM1,PFS,Progression-free survival (detected at assessment),168,1,censored at last tumour assessment
S0058,ARM1,OS,Overall survival (death in the simulated horizon),181,1,censored at last simulated contact
S0059,ARM1,PFS,Progression-free survival (detected at assessment),34,1,censored at last tumour assessment
S0059,ARM1,OS,Overall survival (death in the simulated horizon),64,1,censored at last simulated contact
S0060,ARM1,PFS,Progression-free survival (detected at assessment),168,1,censored at last tumour assessment
S0060,ARM1,OS,Overall survival (death in the simulated horizon),183,1,censored at last simulated contact
S0061,ARM1,PFS,Progression-free survival (detected at assessment),168,1,censored at last tumour assessment
S0061,ARM1,OS,Overall survival (death in the simulated horizon),182,1,censored at last simulated contact
S0062,ARM2,PFS,Progression-free survival (detected at assessment),97,0,progression detected at scheduled tumour assessment
S0062,ARM2,OS,Overall survival (death in the simulated horizon),119,1,censored at last simulated contact
S0063,ARM1,PFS,Progression-free survival (detected at assessment),25,0,progression detected at scheduled tumour assessment
S0063,ARM1,OS,Overall survival (death in the simulated horizon),49,1,censored at last simulated contact
S0064,ARM1,PFS,Progression-free survival (detected at assessment),108,1,censored at last tumour assessment
S0064,ARM1,OS,Overall survival (death in the simulated horizon),108,0,death
S0065,ARM2,PFS,Progression-free survival (detected at assessment),168,1,censored at last tumour assessment
S0065,ARM2,OS,Overall survival (death in the simulated horizon),180,1,censored at last simulated contact
S0066,ARM1,PFS,Progression-free survival (detected at assessment),168,1,censored at last tumour assessment
S0066,ARM1,OS,Overall survival (death in the simulated horizon),168,1,censored at last simulated contact
S0067,ARM2,PFS,Progression-free survival (detected at assessment),168,1,censored at last tumour assessment
S0067,ARM2,OS,Overall survival (death in the simulated horizon),182,1,censored at last simulated contact
S0068,ARM2,PFS,Progression-free survival (detected at assessment),41,0,progression detected at scheduled tumour assessment
S0068,ARM2,OS,Overall survival (death in the simulated horizon),70,1,censored at last simulated contact
S0069,ARM1,PFS,Progression-free survival (detected at assessment),10,1,censored at last tumour assessment
S0069,ARM1,OS,Overall survival (death in the simulated horizon),38,1,censored at last simulated contact
S0070,ARM2,PFS,Progression-free survival (detected at assessment),168,1,censored at last tumour assessment
S0070,ARM2,OS,Overall survival (death in the simulated horizon),712,0,death
S0071,ARM2,PFS,Progression-free survival (detected at assessment),56,0,progression detected at scheduled tumour assessment
S0071,ARM2,OS,Overall survival (death in the simulated horizon),80,1,censored at last simulated contact
S0072,ARM1,PFS,Progression-free survival (detected at assessment),168,1,censored at last tumour assessment
S0072,ARM1,OS,Overall survival (death in the simulated horizon),178,1,censored at last simulated contact
S0073,ARM1,PFS,Progression-free survival (detected at assessment),73,1,censored at last tumour assessment
S0073,ARM1,OS,Overall survival (death in the simulated horizon),92,1,censored at last simulated contact
S0074,ARM1,PFS,Progression-free survival (detected at assessment),73,0,progression detected at scheduled tumour assessment
S0074,ARM1,OS,Overall survival (death in the simulated horizon),594,0,death
S0075,ARM2,PFS,Progression-free survival (detected at assessment),168,1,censored at last tumour assessment
S0075,ARM2,OS,Overall survival (death in the simulated horizon),197,1,censored at last simulated contact
S0076,ARM2,PFS,Progression-free survival (detected at assessment),168,1,censored at last tumour assessment
S0076,ARM2,OS,Overall survival (death in the simulated horizon),168,1,censored at last simulated contact
S0077,ARM1,PFS,Progression-free survival (detected at assessment),109,1,censored at last tumour assessment
S0077,ARM1,OS,Overall survival (death in the simulated horizon),136,1,censored at last simulated contact
S0078,ARM2,PFS,Progression-free survival (detected at assessment),168,1,censored at last tumour assessment
S0078,ARM2,OS,Overall survival (death in the simulated horizon),187,1,censored at last simulated contact
S0079,ARM2,PFS,Progression-free survival (detected at assessment),168,1,censored at last tumour assessment
S0079,ARM2,OS,Overall survival (death in the simulated horizon),195,1,censored at last simulated contact
S0080,ARM2,PFS,Progression-free survival (detected at assessment),168,1,censored at last tumour assessment
S0080,ARM2,OS,Overall survival (death in the simulated horizon),188,1,censored at last simulated contact
S0081,ARM1,PFS,Progression-free survival (detected at assessment),168,1,censored at last tumour assessment
S0081,ARM1,OS,Overall survival (death in the simulated horizon),191,1,censored at last simulated contact
S0082,ARM2,PFS,Progression-free survival (detected at assessment),168,1,censored at last tumour assessment
S0082,ARM2,OS,Overall survival (death in the simulated horizon),188,1,censored at last simulated contact
S0083,ARM1,PFS,Progression-free survival (detected at assessment),168,1,censored at last tumour assessment
S0083,ARM1,OS,Overall survival (death in the simulated horizon),195,1,censored at last simulated contact
S0084,ARM1,PFS,Progression-free survival (detected at assessment),168,1,censored at last tumour assessment
S0084,ARM1,OS,Overall survival (death in the simulated horizon),180,1,censored at last simulated contact
S0085,ARM1,PFS,Progression-free survival (detected at assessment),168,1,censored at last tumour assessment
S0085,ARM1,OS,Overall survival (death in the simulated horizon),168,1,censored at last simulated contact
S0086,ARM2,PFS,Progression-free survival (detected at assessment),168,1,censored at last tumour assessment
S0086,ARM2,OS,Overall survival (death in the simulated horizon),198,1,censored at last simulated contact
S0087,ARM2,PFS,Progression-free survival (detected at assessment),168,1,censored at last tumour assessment
S0087,ARM2,OS,Overall survival (death in the simulated horizon),172,1,censored at last simulated contact
S0088,ARM2,PFS,Progression-free survival (detected at assessment),143,0,progression detected at scheduled tumour assessment
S0088,ARM2,OS,Overall survival (death in the simulated horizon),165,1,censored at last simulated contact
S0089,ARM2,PFS,Progression-free survival (detected at assessment),139,0,progression detected at scheduled tumour assessment
S0089,ARM2,OS,Overall survival (death in the simulated horizon),162,1,censored at last simulated contact
S0090,ARM1,PFS,Progression-free survival (detected at assessment),168,1,censored at last tumour assessment
S0090,ARM1,OS,Overall survival (death in the simulated horizon),197,1,censored at last simulated contact
S0091,ARM2,PFS,Progression-free survival (detected at assessment),168,1,censored at last tumour assessment
S0091,ARM2,OS,Overall survival (death in the simulated horizon),662,0,death
S0092,ARM1,PFS,Progression-free survival (detected at assessment),168,1,censored at last tumour assessment
S0092,ARM1,OS,Overall survival (death in the simulated horizon),197,1,censored at last simulated contact
S0093,ARM1,PFS,Progression-free survival (detected at assessment),168,1,censored at last tumour assessment
S0093,ARM1,OS,Overall survival (death in the simulated horizon),182,1,censored at last simulated contact
S0094,ARM2,PFS,Progression-free survival (detected at assessment),168,1,censored at last tumour assessment
S0094,ARM2,OS,Overall survival (death in the simulated horizon),197,1,censored at last simulated contact
S0095,ARM1,PFS,Progression-free survival (detected at assessment),114,0,progression detected at scheduled tumour assessment
S0095,ARM1,OS,Overall survival (death in the simulated horizon),133,1,censored at last simulated contact
S0096,ARM2,PFS,Progression-free survival (detected at assessment),168,1,censored at last tumour assessment
S0096,ARM2,OS,Overall survival (death in the simulated horizon),183,1,censored at last simulated contact
S0097,ARM1,PFS,Progression-free survival (detected at assessment),168,1,censored at last tumour assessment
S0097,ARM1,OS,Overall survival (death in the simulated horizon),183,1,censored at last simulated contact
S0098,ARM2,PFS,Progression-free survival (detected at assessment),59,0,progression detected at scheduled tumour assessment
S0098,ARM2,OS,Overall survival (death in the simulated horizon),89,1,censored at last simulated contact
S0099,ARM2,PFS,Progression-free survival (detected at assessment),168,1,censored at last tumour assessment
S0099,ARM2,OS,Overall survival (death in the simulated horizon),193,1,censored at last simulated contact
S0100,ARM1,PFS,Progression-free survival (detected at assessment),38,0,progression detected at scheduled tumour assessment
S0100,ARM1,OS,Overall survival (death in the simulated horizon),65,1,censored at last simulated contact
S0101,ARM1,PFS,Progression-free survival (detected at assessment),168,1,censored at last tumour assessment
S0101,ARM1,OS,Overall survival (death in the simulated horizon),195,1,censored at last simulated contact
S0102,ARM1,PFS,Progression-free survival (detected at assessment),168,1,censored at last tumour assessment
S0102,ARM1,OS,Overall survival (death in the simulated horizon),198,1,censored at last simulated contact
S0103,ARM1,PFS,Progression-free survival (detected at assessment),168,1,censored at last tumour assessment
S0103,ARM1,OS,Overall survival (death in the simulated horizon),168,1,censored at last simulated contact
S0104,ARM1,PFS,Progression-free survival (detected at assessment),61,0,progression detected at scheduled tumour assessment
S0104,ARM1,OS,Overall survival (death in the simulated horizon),89,1,censored at last simulated contact
S0105,ARM1,PFS,Progression-free survival (detected at assessment),81,0,progression detected at scheduled tumour assessment
S0105,ARM1,OS,Overall survival (death in the simulated horizon),110,1,censored at last simulated contact
S0106,ARM1,PFS,Progression-free survival (detected at assessment),168,1,censored at last tumour assessment
S0106,ARM1,OS,Overall survival (death in the simulated horizon),197,1,censored at last simulated contact
S0107,ARM2,PFS,Progression-free survival (detected at assessment),65,0,progression detected at scheduled tumour assessment
S0107,ARM2,OS,Overall survival (death in the simulated horizon),85,1,censored at last simulated contact
S0108,ARM1,PFS,Progression-free survival (detected at assessment),100,1,censored at last tumour assessment
S0108,ARM1,OS,Overall survival (death in the simulated horizon),112,1,censored at last simulated contact
S0109,ARM1,PFS,Progression-free survival (detected at assessment),168,1,censored at last tumour assessment
S0109,ARM1,OS,Overall survival (death in the simulated horizon),198,1,censored at last simulated contact
S0110,ARM1,PFS,Progression-free survival (detected at assessment),168,1,censored at last tumour assessment
S0110,ARM1,OS,Overall survival (death in the simulated horizon),168,1,censored at last simulated contact
S0111,ARM1,PFS,Progression-free survival (detected at assessment),168,1,censored at last tumour assessment
S0111,ARM1,OS,Overall survival (death in the simulated horizon),174,1,censored at last simulated contact
S0112,ARM2,PFS,Progression-free survival (detected at assessment),61,0,progression detected at scheduled tumour assessment
S0112,ARM2,OS,Overall survival (death in the simulated horizon),90,1,censored at last simulated contact
S0113,ARM2,PFS,Progression-free survival (detected at assessment),168,1,censored at last tumour assessment
S0113,ARM2,OS,Overall survival (death in the simulated horizon),182,1,censored at last simulated contact
S0114,ARM1,PFS,Progression-free survival (detected at assessment),145,1,censored at last tumour assessment
S0114,ARM1,OS,Overall survival (death in the simulated horizon),145,0,death
S0115,ARM2,PFS,Progression-free survival (detected at assessment),61,0,progression detected at scheduled tumour assessment
S0115,ARM2,OS,Overall survival (death in the simulated horizon),91,1,censored at last simulated contact
S0116,ARM1,PFS,Progression-free survival (detected at assessment),122,1,censored at last tumour assessment
S0116,ARM1,OS,Overall survival (death in the simulated horizon),140,1,censored at last simulated contact
S0117,ARM1,PFS,Progression-free survival (detected at assessment),168,1,censored at last tumour assessment
S0117,ARM1,OS,Overall survival (death in the simulated horizon),197,1,censored at last simulated contact
S0118,ARM2,PFS,Progression-free survival (detected at assessment),168,1,censored at last tumour assessment
S0118,ARM2,OS,Overall survival (death in the simulated horizon),195,1,censored at last simulated contact
S0119,ARM1,PFS,Progression-free survival (detected at assessment),168,1,censored at last tumour assessment
S0119,ARM1,OS,Overall survival (death in the simulated horizon),190,1,censored at last simulated contact
S0120,ARM1,PFS,Progression-free survival (detected at assessment),111,1,censored at last tumour assessment
S0120,ARM1,OS,Overall survival (death in the simulated horizon),140,1,censored at last simulated contact
S0121,ARM1,PFS,Progression-free survival (detected at assessment),168,1,censored at last tumour assessment
S0121,ARM1,OS,Overall survival (death in the simulated horizon),198,1,censored at last simulated contact
S0122,ARM1,PFS,Progression-free survival (detected at assessment),168,1,censored at last tumour assessment
S0122,ARM1,OS,Overall survival (death in the simulated horizon),193,1,censored at last simulated contact
S0123,ARM2,PFS,Progression-free survival (detected at assessment),168,1,censored at last tumour assessment
S0123,ARM2,OS,Overall survival (death in the simulated horizon),186,1,censored at last simulated contact
S0124,ARM1,PFS,Progression-free survival (detected at assessment),168,1,censored at last tumour assessment
S0124,ARM1,OS,Overall survival (death in the simulated horizon),168,1,censored at last simulated contact
S0125,ARM1,PFS,Progression-free survival (detected at assessment),121,1,censored at last tumour assessment
S0125,ARM1,OS,Overall survival (death in the simulated horizon),146,1,censored at last simulated contact
S0126,ARM1,PFS,Progression-free survival (detected at assessment),168,1,censored at last tumour assessment
S0126,ARM1,OS,Overall survival (death in the simulated horizon),179,1,censored at last simulated contact
S0127,ARM2,PFS,Progression-free survival (detected at assessment),168,1,censored at last tumour assessment
S0127,ARM2,OS,Overall survival (death in the simulated horizon),181,1,censored at last simulated contact
S0128,ARM1,PFS,Progression-free survival (detected at assessment),168,1,censored at last tumour assessment
S0128,ARM1,OS,Overall survival (death in the simulated horizon),168,1,censored at last simulated contact
S0129,ARM1,PFS,Progression-free survival (detected at assessment),168,1,censored at last tumour assessment
S0129,ARM1,OS,Overall survival (death in the simulated horizon),185,1,censored at last simulated contact
S0130,ARM2,PFS,Progression-free survival (detected at assessment),168,1,censored at last tumour assessment
S0130,ARM2,OS,Overall survival (death in the simulated horizon),168,1,censored at last simulated contact
S0131,ARM1,PFS,Progression-free survival (detected at assessment),168,1,censored at last tumour assessment
S0131,ARM1,OS,Overall survival (death in the simulated horizon),190,1,censored at last simulated contact
S0132,ARM2,PFS,Progression-free survival (detected at assessment),46,0,progression detected at scheduled tumour assessment
S0132,ARM2,OS,Overall survival (death in the simulated horizon),71,1,censored at last simulated contact
S0133,ARM2,PFS,Progression-free survival (detected at assessment),168,1,censored at last tumour assessment
S0133,ARM2,OS,Overall survival (death in the simulated horizon),187,1,censored at last simulated contact
S0134,ARM2,PFS,Progression-free survival (detected at assessment),168,1,censored at last tumour assessment
S0134,ARM2,OS,Overall survival (death in the simulated horizon),171,1,censored at last simulated contact
S0135,ARM2,PFS,Progression-free survival (detected at assessment),83,0,progression detected at scheduled tumour assessment
S0135,ARM2,OS,Overall survival (death in the simulated horizon),109,1,censored at last simulated contact
S0136,ARM2,PFS,Progression-free survival (detected at assessment),168,1,censored at last tumour assessment
S0136,ARM2,OS,Overall survival (death in the simulated horizon),190,1,censored at last simulated contact
S0137,ARM1,PFS,Progression-free survival (detected at assessment),20,0,progression detected at scheduled tumour assessment
S0137,ARM1,OS,Overall survival (death in the simulated horizon),47,1,censored at last simulated contact
S0138,ARM2,PFS,Progression-free survival (detected at assessment),168,1,censored at last tumour assessment
S0138,ARM2,OS,Overall survival (death in the simulated horizon),198,1,censored at last simulated contact
S0139,ARM1,PFS,Progression-free survival (detected at assessment),168,1,censored at last tumour assessment
S0139,ARM1,OS,Overall survival (death in the simulated horizon),191,1,censored at last simulated contact
S0140,ARM1,PFS,Progression-free survival (detected at assessment),168,1,censored at last tumour assessment
S0140,ARM1,OS,Overall survival (death in the simulated horizon),196,1,censored at last simulated contact
S0141,ARM2,PFS,Progression-free survival (detected at assessment),168,1,censored at last tumour assessment
S0141,ARM2,OS,Overall survival (death in the simulated horizon),192,1,censored at last simulated contact
S0142,ARM2,PFS,Progression-free survival (detected at assessment),168,1,censored at last tumour assessment
S0142,ARM2,OS,Overall survival (death in the simulated horizon),190,1,censored at last simulated contact
S0143,ARM2,PFS,Progression-free survival (detected at assessment),168,1,censored at last tumour assessment
S0143,ARM2,OS,Overall survival (death in the simulated horizon),194,1,censored at last simulated contact
S0144,ARM2,PFS,Progression-free survival (detected at assessment),168,1,censored at last tumour assessment
S0144,ARM2,OS,Overall survival (death in the simulated horizon),179,1,censored at last simulated contact
S0145,ARM1,PFS,Progression-free survival (detected at assessment),168,1,censored at last tumour assessment
S0145,ARM1,OS,Overall survival (death in the simulated horizon),195,1,censored at last simulated contact
S0146,ARM2,PFS,Progression-free survival (detected at assessment),168,1,censored at last tumour assessment
S0146,ARM2,OS,Overall survival (death in the simulated horizon),656,0,death
S0147,ARM2,PFS,Progression-free survival (detected at assessment),168,1,censored at last tumour assessment
S0147,ARM2,OS,Overall survival (death in the simulated horizon),192,1,censored at last simulated contact
S0148,ARM2,PFS,Progression-free survival (detected at assessment),26,1,censored at last tumour assessment
S0148,ARM2,OS,Overall survival (death in the simulated horizon),56,1,censored at last simulated contact
S0149,ARM1,PFS,Progression-free survival (detected at assessment),120,0,progression detected at scheduled tumour assessment
S0149,ARM1,OS,Overall survival (death in the simulated horizon),150,1,censored at last simulated contact
S0150,ARM2,PFS,Progression-free survival (detected at assessment),168,1,censored at last tumour assessment
S0150,ARM2,OS,Overall survival (death in the simulated horizon),177,1,censored at last simulated contact
S0151,ARM2,PFS,Progression-free survival (detected at assessment),168,1,censored at last tumour assessment
S0151,ARM2,OS,Overall survival (death in the simulated horizon),198,1,censored at last simulated contact
S0152,ARM1,PFS,Progression-free survival (detected at assessment),168,1,censored at last tumour assessment
S0152,ARM1,OS,Overall survival (death in the simulated horizon),168,1,censored at last simulated contact
S0153,ARM2,PFS,Progression-free survival (detected at assessment),33,1,censored at last tumour assessment
S0153,ARM2,OS,Overall survival (death in the simulated horizon),61,1,censored at last simulated contact
S0154,ARM2,PFS,Progression-free survival (detected at assessment),168,1,censored at last tumour assessment
S0154,ARM2,OS,Overall survival (death in the simulated horizon),175,1,censored at last simulated contact
S0155,ARM1,PFS,Progression-free survival (detected at assessment),19,0,progression detected at scheduled tumour assessment
S0155,ARM1,OS,Overall survival (death in the simulated horizon),49,1,censored at last simulated contact
S0156,ARM1,PFS,Progression-free survival (detected at assessment),168,1,censored at last tumour assessment
S0156,ARM1,OS,Overall survival (death in the simulated horizon),193,1,censored at last simulated contact
S0157,ARM2,PFS,Progression-free survival (detected at assessment),73,1,censored at last tumour assessment
S0157,ARM2,OS,Overall survival (death in the simulated horizon),73,0,death
S0158,ARM2,PFS,Progression-free survival (detected at assessment),163,0,progression detected at scheduled tumour assessment
S0158,ARM2,OS,Overall survival (death in the simulated horizon),192,1,censored at last simulated contact
S0159,ARM2,PFS,Progression-free survival (detected at assessment),168,1,censored at last tumour assessment
S0159,ARM2,OS,Overall survival (death in the simulated horizon),168,1,censored at last simulated contact
S0160,ARM1,PFS,Progression-free survival (detected at assessment),168,1,censored at last tumour assessment
S0160,ARM1,OS,Overall survival (death in the simulated horizon),192,1,censored at last simulated contact
S0161,ARM2,PFS,Progression-free survival (detected at assessment),168,1,censored at last tumour assessment
S0161,ARM2,OS,Overall survival (death in the simulated horizon),189,1,censored at last simulated contact
S0162,ARM2,PFS,Progression-free survival (detected at assessment),168,1,censored at last tumour assessment
S0162,ARM2,OS,Overall survival (death in the simulated horizon),183,1,censored at last simulated contact
S0163,ARM1,PFS,Progression-free survival (detected at assessment),168,1,censored at last tumour assessment
S0163,ARM1,OS,Overall survival (death in the simulated horizon),196,1,censored at last simulated contact
S0164,ARM2,PFS,Progression-free survival (detected at assessment),168,1,censored at last tumour assessment
S0164,ARM2,OS,Overall survival (death in the simulated horizon),185,1,censored at last simulated contact
S0165,ARM2,PFS,Progression-free survival (detected at assessment),168,1,censored at last tumour assessment
S0165,ARM2,OS,Overall survival (death in the simulated horizon),197,1,censored at last simulated contact
S0166,ARM1,PFS,Progression-free survival (detected at assessment),168,1,censored at last tumour assessment
S0166,ARM1,OS,Overall survival (death in the simulated horizon),185,1,censored at last simulated contact
S0167,ARM1,PFS,Progression-free survival (detected at assessment),159,1,censored at last tumour assessment
S0167,ARM1,OS,Overall survival (death in the simulated horizon),350,0,death
S0168,ARM2,PFS,Progression-free survival (detected at assessment),168,1,censored at last tumour assessment
S0168,ARM2,OS,Overall survival (death in the simulated horizon),192,1,censored at last simulated contact
S0169,ARM2,PFS,Progression-free survival (detected at assessment),168,1,censored at last tumour assessment
S0169,ARM2,OS,Overall survival (death in the simulated horizon),190,1,censored at last simulated contact
S0170,ARM2,PFS,Progression-free survival (detected at assessment),168,1,censored at last tumour assessment
S0170,ARM2,OS,Overall survival (death in the simulated horizon),488,0,death
S0171,ARM1,PFS,Progression-free survival (detected at assessment),168,1,censored at last tumour assessment
S0171,ARM1,OS,Overall survival (death in the simulated horizon),198,1,censored at last simulated contact
S0172,ARM1,PFS,Progression-free survival (detected at assessment),168,1,censored at last tumour assessment
S0172,ARM1,OS,Overall survival (death in the simulated horizon),168,1,censored at last simulated contact
S0173,ARM1,PFS,Progression-free survival (detected at assessment),168,1,censored at last tumour assessment
S0173,ARM1,OS,Overall survival (death in the simulated horizon),186,1,censored at last simulated contact
S0174,ARM1,PFS,Progression-free survival (detected at assessment),73,0,progression detected at scheduled tumour assessment
S0174,ARM1,OS,Overall survival (death in the simulated horizon),96,1,censored at last simulated contact
S0175,ARM2,PFS,Progression-free survival (detected at assessment),168,1,censored at last tumour assessment
S0175,ARM2,OS,Overall survival (death in the simulated horizon),183,1,censored at last simulated contact
S0176,ARM2,PFS,Progression-free survival (detected at assessment),168,1,censored at last tumour assessment
S0176,ARM2,OS,Overall survival (death in the simulated horizon),188,1,censored at last simulated contact
S0177,ARM2,PFS,Progression-free survival (detected at assessment),168,1,censored at last tumour assessment
S0177,ARM2,OS,Overall survival (death in the simulated horizon),196,1,censored at last simulated contact
S0178,ARM1,PFS,Progression-free survival (detected at assessment),168,1,censored at last tumour assessment
S0178,ARM1,OS,Overall survival (death in the simulated horizon),189,1,censored at last simulated contact
S0179,ARM2,PFS,Progression-free survival (detected at assessment),168,1,censored at last tumour assessment
S0179,ARM2,OS,Overall survival (death in the simulated horizon),196,1,censored at last simulated contact
S0180,ARM1,PFS,Progression-free survival (detected at assessment),168,1,censored at last tumour assessment
S0180,ARM1,OS,Overall survival (death in the simulated horizon),198,1,censored at last simulated contact
S0181,ARM1,PFS,Progression-free survival (detected at assessment),168,1,censored at last tumour assessment
S0181,ARM1,OS,Overall survival (death in the simulated horizon),182,1,censored at last simulated contact
S0182,ARM2,PFS,Progression-free survival (detected at assessment),168,1,censored at last tumour assessment
S0182,ARM2,OS,Overall survival (death in the simulated horizon),196,1,censored at last simulated contact
S0183,ARM1,PFS,Progression-free survival (detected at assessment),168,1,censored at last tumour assessment
S0183,ARM1,OS,Overall survival (death in the simulated horizon),195,1,censored at last simulated contact
S0184,ARM2,PFS,Progression-free survival (detected at assessment),168,1,censored at last tumour assessment
S0184,ARM2,OS,Overall survival (death in the simulated horizon),187,1,censored at last simulated contact
S0185,ARM2,PFS,Progression-free survival (detected at assessment),168,1,censored at last tumour assessment
S0185,ARM2,OS,Overall survival (death in the simulated horizon),195,1,censored at last simulated contact
S0186,ARM1,PFS,Progression-free survival (detected at assessment),168,1,censored at last tumour assessment
S0186,ARM1,OS,Overall survival (death in the simulated horizon),192,1,censored at last simulated contact
S0187,ARM1,PFS,Progression-free survival (detected at assessment),168,1,censored at last tumour assessment
S0187,ARM1,OS,Overall survival (death in the simulated horizon),198,1,censored at last simulated contact
S0188,ARM2,PFS,Progression-free survival (detected at assessment),168,1,censored at last tumour assessment
S0188,ARM2,OS,Overall survival (death in the simulated horizon),186,1,censored at last simulated contact
S0189,ARM2,PFS,Progression-free survival (detected at assessment),168,1,censored at last tumour assessment
S0189,ARM2,OS,Overall survival (death in the simulated horizon),189,1,censored at last simulated contact
S0190,ARM1,PFS,Progression-free survival (detected at assessment),168,1,censored at last tumour assessment
S0190,ARM1,OS,Overall survival (death in the simulated horizon),195,1,censored at last simulated contact
S0191,ARM1,PFS,Progression-free survival (detected at assessment),168,1,censored at last tumour assessment
S0191,ARM1,OS,Overall survival (death in the simulated horizon),190,1,censored at last simulated contact
S0192,ARM1,PFS,Progression-free survival (detected at assessment),168,1,censored at last tumour assessment
S0192,ARM1,OS,Overall survival (death in the simulated horizon),198,1,censored at last simulated contact
S0193,ARM2,PFS,Progression-free survival (detected at assessment),168,1,censored at last tumour assessment
S0193,ARM2,OS,Overall survival (death in the simulated horizon),177,1,censored at last simulated contact
S0194,ARM1,PFS,Progression-free survival (detected at assessment),160,0,progression detected at scheduled tumour assessment
S0194,ARM1,OS,Overall survival (death in the simulated horizon),190,1,censored at last simulated contact
S0195,ARM1,PFS,Progression-free survival (detected at assessment),168,1,censored at last tumour assessment
S0195,ARM1,OS,Overall survival (death in the simulated horizon),443,0,death
S0196,ARM2,PFS,Progression-free survival (detected at assessment),58,1,censored at last tumour assessment
S0196,ARM2,OS,Overall survival (death in the simulated horizon),85,1,censored at last simulated contact
S0197,ARM2,PFS,Progression-free survival (detected at assessment),168,1,censored at last tumour assessment
S0197,ARM2,OS,Overall survival (death in the simulated horizon),196,1,censored at last simulated contact
S0198,ARM2,PFS,Progression-free survival (detected at assessment),152,0,progression detected at scheduled tumour assessment
S0198,ARM2,OS,Overall survival (death in the simulated horizon),167,1,censored at last simulated contact
S0199,ARM2,PFS,Progression-free survival (detected at assessment),30,1,censored at last tumour assessment
S0199,ARM2,OS,Overall survival (death in the simulated horizon),58,1,censored at last simulated contact
S0200,ARM2,PFS,Progression-free survival (detected at assessment),168,1,censored at last tumour assessment
S0200,ARM2,OS,Overall survival (death in the simulated horizon),195,1,censored at last simulated contact
S0201,ARM1,PFS,Progression-free survival (detected at assessment),168,1,censored at last tumour assessment
S0201,ARM1,OS,Overall survival (death in the simulated horizon),190,1,censored at last simulated contact
S0202,ARM2,PFS,Progression-free survival (detected at assessment),168,1,censored at last tumour assessment
S0202,ARM2,OS,Overall survival (death in the simulated horizon),198,1,censored at last simulated contact
S0203,ARM2,PFS,Progression-free survival (detected at assessment),168,1,censored at last tumour assessment
S0203,ARM2,OS,Overall survival (death in the simulated horizon),315,0,death
S0204,ARM1,PFS,Progression-free survival (detected at assessment),168,1,censored at last tumour assessment
S0204,ARM1,OS,Overall survival (death in the simulated horizon),184,1,censored at last simulated contact
S0205,ARM2,PFS,Progression-free survival (detected at assessment),24,0,progression detected at scheduled tumour assessment
S0205,ARM2,OS,Overall survival (death in the simulated horizon),52,1,censored at last simulated contact
S0206,ARM2,PFS,Progression-free survival (detected at assessment),168,1,censored at last tumour assessment
S0206,ARM2,OS,Overall survival (death in the simulated horizon),198,1,censored at last simulated contact
S0207,ARM2,PFS,Progression-free survival (detected at assessment),17,1,censored at last tumour assessment
S0207,ARM2,OS,Overall survival (death in the simulated horizon),47,1,censored at last simulated contact
S0208,ARM1,PFS,Progression-free survival (detected at assessment),168,1,censored at last tumour assessment
S0208,ARM1,OS,Overall survival (death in the simulated horizon),177,1,censored at last simulated contact
S0209,ARM1,PFS,Progression-free survival (detected at assessment),168,1,censored at last tumour assessment
S0209,ARM1,OS,Overall survival (death in the simulated horizon),198,1,censored at last simulated contact
S0210,ARM2,PFS,Progression-free survival (detected at assessment),168,1,censored at last tumour assessment
S0210,ARM2,OS,Overall survival (death in the simulated horizon),188,1,censored at last simulated contact
S0211,ARM2,PFS,Progression-free survival (detected at assessment),168,1,censored at last tumour assessment
S0211,ARM2,OS,Overall survival (death in the simulated horizon),197,1,censored at last simulated contact
S0212,ARM1,PFS,Progression-free survival (detected at assessment),168,1,censored at last tumour assessment
S0212,ARM1,OS,Overall survival (death in the simulated horizon),189,1,censored at last simulated contact
S0213,ARM1,PFS,Progression-free survival (detected at assessment),168,1,censored at last tumour assessment
S0213,ARM1,OS,Overall survival (death in the simulated horizon),185,1,censored at last simulated contact
S0214,ARM2,PFS,Progression-free survival (detected at assessment),120,1,censored at last tumour assessment
S0214,ARM2,OS,Overall survival (death in the simulated horizon),146,1,censored at last simulated contact
S0215,ARM2,PFS,Progression-free survival (detected at assessment),138,0,progression detected at scheduled tumour assessment
S0215,ARM2,OS,Overall survival (death in the simulated horizon),163,1,censored at last simulated contact
S0216,ARM2,PFS,Progression-free survival (detected at assessment),104,0,progression detected at scheduled tumour assessment
S0216,ARM2,OS,Overall survival (death in the simulated horizon),134,1,censored at last simulated contact
S0217,ARM2,PFS,Progression-free survival (detected at assessment),144,0,progression detected at scheduled tumour assessment
S0217,ARM2,OS,Overall survival (death in the simulated horizon),173,1,censored at last simulated contact
S0218,ARM2,PFS,Progression-free survival (detected at assessment),39,1,censored at last tumour assessment
S0218,ARM2,OS,Overall survival (death in the simulated horizon),57,1,censored at last simulated contact
S0219,ARM1,PFS,Progression-free survival (detected at assessment),168,1,censored at last tumour assessment
S0219,ARM1,OS,Overall survival (death in the simulated horizon),168,1,censored at last simulated contact
S0220,ARM2,PFS,Progression-free survival (detected at assessment),168,1,censored at last tumour assessment
S0220,ARM2,OS,Overall survival (death in the simulated horizon),192,1,censored at last simulated contact
S0221,ARM2,PFS,Progression-free survival (detected at assessment),13,0,progression detected at scheduled tumour assessment
S0221,ARM2,OS,Overall survival (death in the simulated horizon),43,1,censored at last simulated contact
S0222,ARM1,PFS,Progression-free survival (detected at assessment),34,1,censored at last tumour assessment
S0222,ARM1,OS,Overall survival (death in the simulated horizon),64,1,censored at last simulated contact
S0223,ARM1,PFS,Progression-free survival (detected at assessment),168,1,censored at last tumour assessment
S0223,ARM1,OS,Overall survival (death in the simulated horizon),198,1,censored at last simulated contact
S0224,ARM1,PFS,Progression-free survival (detected at assessment),168,1,censored at last tumour assessment
S0224,ARM1,OS,Overall survival (death in the simulated horizon),175,1,censored at last simulated contact
S0225,ARM1,PFS,Progression-free survival (detected at assessment),168,1,censored at last tumour assessment
S0225,ARM1,OS,Overall survival (death in the simulated horizon),198,1,censored at last simulated contact
S0226,ARM1,PFS,Progression-free survival (detected at assessment),168,1,censored at last tumour assessment
S0226,ARM1,OS,Overall survival (death in the simulated horizon),192,1,censored at last simulated contact
S0227,ARM1,PFS,Progression-free survival (detected at assessment),168,1,censored at last tumour assessment
S0227,ARM1,OS,Overall survival (death in the simulated horizon),185,1,censored at last simulated contact
S0228,ARM2,PFS,Progression-free survival (detected at assessment),48,0,progression detected at scheduled tumour assessment
S0228,ARM2,OS,Overall survival (death in the simulated horizon),75,1,censored at last simulated contact
S0229,ARM2,PFS,Progression-free survival (detected at assessment),168,1,censored at last tumour assessment
S0229,ARM2,OS,Overall survival (death in the simulated horizon),185,1,censored at last simulated contact
S0230,ARM2,PFS,Progression-free survival (detected at assessment),168,1,censored at last tumour assessment
S0230,ARM2,OS,Overall survival (death in the simulated horizon),189,1,censored at last simulated contact
S0231,ARM1,PFS,Progression-free survival (detected at assessment),168,1,censored at last tumour assessment
S0231,ARM1,OS,Overall survival (death in the simulated horizon),188,1,censored at last simulated contact
S0232,ARM1,PFS,Progression-free survival (detected at assessment),168,1,censored at last tumour assessment
S0232,ARM1,OS,Overall survival (death in the simulated horizon),198,1,censored at last simulated contact
S0233,ARM2,PFS,Progression-free survival (detected at assessment),168,1,censored at last tumour assessment
S0233,ARM2,OS,Overall survival (death in the simulated horizon),194,1,censored at last simulated contact
S0234,ARM1,PFS,Progression-free survival (detected at assessment),83,1,censored at last tumour assessment
S0234,ARM1,OS,Overall survival (death in the simulated horizon),108,1,censored at last simulated contact
S0235,ARM1,PFS,Progression-free survival (detected at assessment),168,1,censored at last tumour assessment
S0235,ARM1,OS,Overall survival (death in the simulated horizon),177,1,censored at last simulated contact
S0236,ARM2,PFS,Progression-free survival (detected at assessment),168,1,censored at last tumour assessment
S0236,ARM2,OS,Overall survival (death in the simulated horizon),181,1,censored at last simulated contact
S0237,ARM1,PFS,Progression-free survival (detected at assessment),122,1,censored at last tumour assessment
S0237,ARM1,OS,Overall survival (death in the simulated horizon),150,1,censored at last simulated contact
S0238,ARM1,PFS,Progression-free survival (detected at assessment),168,1,censored at last tumour assessment
S0238,ARM1,OS,Overall survival (death in the simulated horizon),184,1,censored at last simulated contact
S0239,ARM1,PFS,Progression-free survival (detected at assessment),168,1,censored at last tumour assessment
S0239,ARM1,OS,Overall survival (death in the simulated horizon),198,1,censored at last simulated contact
S0240,ARM2,PFS,Progression-free survival (detected at assessment),168,1,censored at last tumour assessment
S0240,ARM2,OS,Overall survival (death in the simulated horizon),195,1,censored at last simulated contact
S0241,ARM2,PFS,Progression-free survival (detected at assessment),168,1,censored at last tumour assessment
S0241,ARM2,OS,Overall survival (death in the simulated horizon),179,1,censored at last simulated contact
S0242,ARM1,PFS,Progression-free survival (detected at assessment),25,0,progression detected at scheduled tumour assessment
S0242,ARM1,OS,Overall survival (death in the simulated horizon),53,1,censored at last simulated contact
S0243,ARM2,PFS,Progression-free survival (detected at assessment),168,1,censored at last tumour assessment
S0243,ARM2,OS,Overall survival (death in the simulated horizon),187,1,censored at last simulated contact
S0244,ARM1,PFS,Progression-free survival (detected at assessment),168,1,censored at last tumour assessment
S0244,ARM1,OS,Overall survival (death in the simulated horizon),567,0,death
S0245,ARM1,PFS,Progression-free survival (detected at assessment),168,1,censored at last tumour assessment
S0245,ARM1,OS,Overall survival (death in the simulated horizon),195,1,censored at last simulated contact
S0246,ARM2,PFS,Progression-free survival (detected at assessment),168,1,censored at last tumour assessment
S0246,ARM2,OS,Overall survival (death in the simulated horizon),174,1,censored at last simulated contact
S0247,ARM2,PFS,Progression-free survival (detected at assessment),168,1,censored at last tumour assessment
S0247,ARM2,OS,Overall survival (death in the simulated horizon),197,1,censored at last simulated contact
S0248,ARM1,PFS,Progression-free survival (detected at assessment),168,1,censored at last tumour assessment
S0248,ARM1,OS,Overall survival (death in the simulated horizon),193,1,censored at last simulated contact
S0249,ARM2,PFS,Progression-free survival (detected at assessment),168,1,censored at last tumour assessment
S0249,ARM2,OS,Overall survival (death in the simulated horizon),269,0,death
S0250,ARM1,PFS,Progression-free survival (detected at assessment),24,1,censored at last tumour assessment
S0250,ARM1,OS,Overall survival (death in the simulated horizon),53,1,censored at last simulated contact
S0251,ARM1,PFS,Progression-free survival (detected at assessment),168,1,censored at last tumour assessment
S0251,ARM1,OS,Overall survival (death in the simulated horizon),198,1,censored at last simulated contact
S0252,ARM1,PFS,Progression-free survival (detected at assessment),63,1,censored at last tumour assessment
S0252,ARM1,OS,Overall survival (death in the simulated horizon),93,1,censored at last simulated contact
S0253,ARM2,PFS,Progression-free survival (detected at assessment),168,1,censored at last tumour assessment
S0253,ARM2,OS,Overall survival (death in the simulated horizon),179,1,censored at last simulated contact
S0254,ARM2,PFS,Progression-free survival (detected at assessment),168,1,censored at last tumour assessment
S0254,ARM2,OS,Overall survival (death in the simulated horizon),192,1,censored at last simulated contact
S0255,ARM2,PFS,Progression-free survival (detected at assessment),168,1,censored at last tumour assessment
S0255,ARM2,OS,Overall survival (death in the simulated horizon),190,1,censored at last simulated contact
S0256,ARM1,PFS,Progression-free survival (detected at assessment),168,1,censored at last tumour assessment
S0256,ARM1,OS,Overall survival (death in the simulated horizon),185,1,censored at last simulated contact
S0257,ARM2,PFS,Progression-free survival (detected at assessment),168,1,censored at last tumour assessment
S0257,ARM2,OS,Overall survival (death in the simulated horizon),189,1,censored at last simulated contact
S0258,ARM2,PFS,Progression-free survival (detected at assessment),69,0,progression detected at scheduled tumour assessment
S0258,ARM2,OS,Overall survival (death in the simulated horizon),90,1,censored at last simulated contact
S0259,ARM1,PFS,Progression-free survival (detected at assessment),20,0,progression detected at scheduled tumour assessment
S0259,ARM1,OS,Overall survival (death in the simulated horizon),49,1,censored at last simulated contact
S0260,ARM1,PFS,Progression-free survival (detected at assessment),168,1,censored at last tumour assessment
S0260,ARM1,OS,Overall survival (death in the simulated horizon),196,1,censored at last simulated contact
S0261,ARM2,PFS,Progression-free survival (detected at assessment),70,1,censored at last tumour assessment
S0261,ARM2,OS,Overall survival (death in the simulated horizon),97,1,censored at last simulated contact
S0262,ARM2,PFS,Progression-free survival (detected at assessment),64,0,progression detected at scheduled tumour assessment
S0262,ARM2,OS,Overall survival (death in the simulated horizon),93,1,censored at last simulated contact
S0263,ARM1,PFS,Progression-free survival (detected at assessment),135,1,censored at last tumour assessment
S0263,ARM1,OS,Overall survival (death in the simulated horizon),135,0,death
S0264,ARM1,PFS,Progression-free survival (detected at assessment),168,1,censored at last tumour assessment
S0264,ARM1,OS,Overall survival (death in the simulated horizon),193,1,censored at last simulated contact
S0265,ARM1,PFS,Progression-free survival (detected at assessment),168,1,censored at last tumour assessment
S0265,ARM1,OS,Overall survival (death in the simulated horizon),178,1,censored at last simulated contact
S0266,ARM1,PFS,Progression-free survival (detected at assessment),168,1,censored at last tumour assessment
S0266,ARM1,OS,Overall survival (death in the simulated horizon),198,1,censored at last simulated contact
S0267,ARM2,PFS,Progression-free survival (detected at assessment),82,1,censored at last tumour assessment
S0267,ARM2,OS,Overall survival (death in the simulated horizon),363,0,death
S0268,ARM2,PFS,Progression-free survival (detected at assessment),168,1,censored at last tumour assessment
S0268,ARM2,OS,Overall survival (death in the simulated horizon),198,1,censored at last simulated contact
S0269,ARM2,PFS,Progression-free survival (detected at assessment),143,0,progression detected at scheduled tumour assessment
S0269,ARM2,OS,Overall survival (death in the simulated horizon),172,1,censored at last simulated contact
S0270,ARM2,PFS,Progression-free survival (detected at assessment),168,1,censored at last tumour assessment
S0270,ARM2,OS,Overall survival (death in the simulated horizon),195,1,censored at last simulated contact
S0271,ARM2,PFS,Progression-free survival (detected at assessment),168,1,censored at last tumour assessment
S0271,ARM2,OS,Overall survival (death in the simulated horizon),186,1,censored at last simulated contact
S0272,ARM1,PFS,Progression-free survival (detected at assessment),151,0,progression detected at scheduled tumour assessment
S0272,ARM1,OS,Overall survival (death in the simulated horizon),181,1,censored at last simulated contact
S0273,ARM2,PFS,Progression-free survival (detected at assessment),164,0,progression detected at scheduled tumour assessment
S0273,ARM2,OS,Overall survival (death in the simulated horizon),190,1,censored at last simulated contact
S0274,ARM1,PFS,Progression-free survival (detected at assessment),168,1,censored at last tumour assessment
S0274,ARM1,OS,Overall survival (death in the simulated horizon),195,1,censored at last simulated contact
S0275,ARM1,PFS,Progression-free survival (detected at assessment),73,1,censored at last tumour assessment
S0275,ARM1,OS,Overall survival (death in the simulated horizon),83,1,censored at last simulated contact
S0276,ARM2,PFS,Progression-free survival (detected at assessment),168,1,censored at last tumour assessment
S0276,ARM2,OS,Overall survival (death in the simulated horizon),168,1,censored at last simulated contact
S0277,ARM1,PFS,Progression-free survival (detected at assessment),111,1,censored at last tumour assessment
S0277,ARM1,OS,Overall survival (death in the simulated horizon),120,1,censored at last simulated contact
S0278,ARM2,PFS,Progression-free survival (detected at assessment),104,1,censored at last tumour assessment
S0278,ARM2,OS,Overall survival (death in the simulated horizon),131,1,censored at last simulated contact
S0279,ARM1,PFS,Progression-free survival (detected at assessment),168,1,censored at last tumour assessment
S0279,ARM1,OS,Overall survival (death in the simulated horizon),185,1,censored at last simulated contact
S0280,ARM1,PFS,Progression-free survival (detected at assessment),63,0,progression detected at scheduled tumour assessment
S0280,ARM1,OS,Overall survival (death in the simulated horizon),87,1,censored at last simulated contact
S0281,ARM1,PFS,Progression-free survival (detected at assessment),168,1,censored at last tumour assessment
S0281,ARM1,OS,Overall survival (death in the simulated horizon),186,1,censored at last simulated contact
S0282,ARM2,PFS,Progression-free survival (detected at assessment),168,1,censored at last tumour assessment
S0282,ARM2,OS,Overall survival (death in the simulated horizon),606,0,death
S0283,ARM1,PFS,Progression-free survival (detected at assessment),168,1,censored at last tumour assessment
S0283,ARM1,OS,Overall survival (death in the simulated horizon),196,1,censored at last simulated contact
S0284,ARM2,PFS,Progression-free survival (detected at assessment),64,0,progression detected at scheduled tumour assessment
S0284,ARM2,OS,Overall survival (death in the simulated horizon),93,1,censored at last simulated contact
S0285,ARM2,PFS,Progression-free survival (detected at assessment),168,1,censored at last tumour assessment
S0285,ARM2,OS,Overall survival (death in the simulated horizon),183,1,censored at last simulated contact
S0286,ARM2,PFS,Progression-free survival (detected at assessment),168,1,censored at last tumour assessment
S0286,ARM2,OS,Overall survival (death in the simulated horizon),168,1,censored at last simulated contact
S0287,ARM1,PFS,Progression-free survival (detected at assessment),98,0,progression detected at scheduled tumour assessment
S0287,ARM1,OS,Overall survival (death in the simulated horizon),123,1,censored at last simulated contact
S0288,ARM1,PFS,Progression-free survival (detected at assessment),11,1,censored at last tumour assessment
S0288,ARM1,OS,Overall survival (death in the simulated horizon),40,1,censored at last simulated contact
S0289,ARM1,PFS,Progression-free survival (detected at assessment),168,1,censored at last tumour assessment
S0289,ARM1,OS,Overall survival (death in the simulated horizon),198,1,censored at last simulated contact
S0290,ARM2,PFS,Progression-free survival (detected at assessment),13,1,censored at last tumour assessment
S0290,ARM2,OS,Overall survival (death in the simulated horizon),42,1,censored at last simulated contact
S0291,ARM2,PFS,Progression-free survival (detected at assessment),168,1,censored at last tumour assessment
S0291,ARM2,OS,Overall survival (death in the simulated horizon),194,1,censored at last simulated contact
S0292,ARM2,PFS,Progression-free survival (detected at assessment),162,0,progression detected at scheduled tumour assessment
S0292,ARM2,OS,Overall survival (death in the simulated horizon),182,1,censored at last simulated contact
S0293,ARM1,PFS,Progression-free survival (detected at assessment),168,1,censored at last tumour assessment
S0293,ARM1,OS,Overall survival (death in the simulated horizon),198,1,censored at last simulated contact
S0294,ARM1,PFS,Progression-free survival (detected at assessment),168,1,censored at last tumour assessment
S0294,ARM1,OS,Overall survival (death in the simulated horizon),723,0,death
S0295,ARM2,PFS,Progression-free survival (detected at assessment),168,1,censored at last tumour assessment
S0295,ARM2,OS,Overall survival (death in the simulated horizon),168,1,censored at last simulated contact
S0296,ARM1,PFS,Progression-free survival (detected at assessment),168,1,censored at last tumour assessment
S0296,ARM1,OS,Overall survival (death in the simulated horizon),196,1,censored at last simulated contact
S0297,ARM2,PFS,Progression-free survival (detected at assessment),168,1,censored at last tumour assessment
S0297,ARM2,OS,Overall survival (death in the simulated horizon),197,1,censored at last simulated contact
S0298,ARM2,PFS,Progression-free survival (detected at assessment),168,1,censored at last tumour assessment
S0298,ARM2,OS,Overall survival (death in the simulated horizon),193,1,censored at last simulated contact
S0299,ARM1,PFS,Progression-free survival (detected at assessment),14,0,progression detected at scheduled tumour assessment
S0299,ARM1,OS,Overall survival (death in the simulated horizon),44,1,censored at last simulated contact
S0300,ARM2,PFS,Progression-free survival (detected at assessment),112,0,progression detected at scheduled tumour assessment
S0300,ARM2,OS,Overall survival (death in the simulated horizon),128,1,censored at last simulated contact
S0301,ARM1,PFS,Progression-free survival (detected at assessment),139,1,censored at last tumour assessment
S0301,ARM1,OS,Overall survival (death in the simulated horizon),167,1,censored at last simulated contact
S0302,ARM1,PFS,Progression-free survival (detected at assessment),168,1,censored at last tumour assessment
S0302,ARM1,OS,Overall survival (death in the simulated horizon),176,1,censored at last simulated contact
S0303,ARM1,PFS,Progression-free survival (detected at assessment),24,0,progression detected at scheduled tumour assessment
S0303,ARM1,OS,Overall survival (death in the simulated horizon),54,1,censored at last simulated contact
S0304,ARM1,PFS,Progression-free survival (detected at assessment),43,1,censored at last tumour assessment
S0304,ARM1,OS,Overall survival (death in the simulated horizon),72,1,censored at last simulated contact
S0305,ARM1,PFS,Progression-free survival (detected at assessment),12,0,progression detected at scheduled tumour assessment
S0305,ARM1,OS,Overall survival (death in the simulated horizon),42,1,censored at last simulated contact
S0306,ARM2,PFS,Progression-free survival (detected at assessment),69,1,censored at last tumour assessment
S0306,ARM2,OS,Overall survival (death in the simulated horizon),86,1,censored at last simulated contact
S0307,ARM1,PFS,Progression-free survival (detected at assessment),168,1,censored at last tumour assessment
S0307,ARM1,OS,Overall survival (death in the simulated horizon),192,1,censored at last simulated contact
S0308,ARM1,PFS,Progression-free survival (detected at assessment),20,1,censored at last tumour assessment
S0308,ARM1,OS,Overall survival (death in the simulated horizon),50,1,censored at last simulated contact
S0309,ARM1,PFS,Progression-free survival (detected at assessment),168,1,censored at last tumour assessment
S0309,ARM1,OS,Overall survival (death in the simulated horizon),198,1,censored at last simulated contact
S0310,ARM2,PFS,Progression-free survival (detected at assessment),168,1,censored at last tumour assessment
S0310,ARM2,OS,Overall survival (death in the simulated horizon),197,1,censored at last simulated contact
S0311,ARM1,PFS,Progression-free survival (detected at assessment),168,1,censored at last tumour assessment
S0311,ARM1,OS,Overall survival (death in the simulated horizon),191,1,censored at last simulated contact
S0312,ARM2,PFS,Progression-free survival (detected at assessment),168,1,censored at last tumour assessment
S0312,ARM2,OS,Overall survival (death in the simulated horizon),195,1,censored at last simulated contact
S0313,ARM2,PFS,Progression-free survival (detected at assessment),168,1,censored at last tumour assessment
S0313,ARM2,OS,Overall survival (death in the simulated horizon),197,1,censored at last simulated contact
S0314,ARM2,PFS,Progression-free survival (detected at assessment),168,1,censored at last tumour assessment
S0314,ARM2,OS,Overall survival (death in the simulated horizon),198,1,censored at last simulated contact
S0315,ARM1,PFS,Progression-free survival (detected at assessment),168,1,censored at last tumour assessment
S0315,ARM1,OS,Overall survival (death in the simulated horizon),197,1,censored at last simulated contact
S0316,ARM1,PFS,Progression-free survival (detected at assessment),162,0,progression detected at scheduled tumour assessment
S0316,ARM1,OS,Overall survival (death in the simulated horizon),191,1,censored at last simulated contact
S0317,ARM2,PFS,Progression-free survival (detected at assessment),168,1,censored at last tumour assessment
S0317,ARM2,OS,Overall survival (death in the simulated horizon),196,1,censored at last simulated contact
S0318,ARM1,PFS,Progression-free survival (detected at assessment),168,1,censored at last tumour assessment
S0318,ARM1,OS,Overall survival (death in the simulated horizon),190,1,censored at last simulated contact
S0319,ARM1,PFS,Progression-free survival (detected at assessment),168,1,censored at last tumour assessment
S0319,ARM1,OS,Overall survival (death in the simulated horizon),187,1,censored at last simulated contact
S0320,ARM1,PFS,Progression-free survival (detected at assessment),168,1,censored at last tumour assessment
S0320,ARM1,OS,Overall survival (death in the simulated horizon),168,1,censored at last simulated contact
S0321,ARM1,PFS,Progression-free survival (detected at assessment),168,1,censored at last tumour assessment
S0321,ARM1,OS,Overall survival (death in the simulated horizon),193,1,censored at last simulated contact
S0322,ARM1,PFS,Progression-free survival (detected at assessment),98,1,censored at last tumour assessment
S0322,ARM1,OS,Overall survival (death in the simulated horizon),99,1,censored at last simulated contact
S0323,ARM1,PFS,Progression-free survival (detected at assessment),100,0,progression detected at scheduled tumour assessment
S0323,ARM1,OS,Overall survival (death in the simulated horizon),125,1,censored at last simulated contact
S0324,ARM2,PFS,Progression-free survival (detected at assessment),92,0,progression detected at scheduled tumour assessment
S0324,ARM2,OS,Overall survival (death in the simulated horizon),121,1,censored at last simulated contact
S0325,ARM2,PFS,Progression-free survival (detected at assessment),168,1,censored at last tumour assessment
S0325,ARM2,OS,Overall survival (death in the simulated horizon),186,1,censored at last simulated contact
S0326,ARM1,PFS,Progression-free survival (detected at assessment),168,1,censored at last tumour assessment
S0326,ARM1,OS,Overall survival (death in the simulated horizon),173,1,censored at last simulated contact
S0327,ARM1,PFS,Progression-free survival (detected at assessment),130,0,progression detected at scheduled tumour assessment
S0327,ARM1,OS,Overall survival (death in the simulated horizon),144,1,censored at last simulated contact
S0328,ARM1,PFS,Progression-free survival (detected at assessment),168,1,censored at last tumour assessment
S0328,ARM1,OS,Overall survival (death in the simulated horizon),191,1,censored at last simulated contact
S0329,ARM2,PFS,Progression-free survival (detected at assessment),168,1,censored at last tumour assessment
S0329,ARM2,OS,Overall survival (death in the simulated horizon),195,1,censored at last simulated contact
S0330,ARM2,PFS,Progression-free survival (detected at assessment),19,1,censored at last tumour assessment
S0330,ARM2,OS,Overall survival (death in the simulated horizon),49,1,censored at last simulated contact
S0331,ARM2,PFS,Progression-free survival (detected at assessment),168,1,censored at last tumour assessment
S0331,ARM2,OS,Overall survival (death in the simulated horizon),193,1,censored at last simulated contact
S0332,ARM1,PFS,Progression-free survival (detected at assessment),168,1,censored at last tumour assessment
S0332,ARM1,OS,Overall survival (death in the simulated horizon),182,1,censored at last simulated contact
S0333,ARM2,PFS,Progression-free survival (detected at assessment),168,1,censored at last tumour assessment
S0333,ARM2,OS,Overall survival (death in the simulated horizon),195,1,censored at last simulated contact
S0334,ARM1,PFS,Progression-free survival (detected at assessment),168,1,censored at last tumour assessment
S0334,ARM1,OS,Overall survival (death in the simulated horizon),656,0,death
S0335,ARM1,PFS,Progression-free survival (detected at assessment),168,1,censored at last tumour assessment
S0335,ARM1,OS,Overall survival (death in the simulated horizon),198,1,censored at last simulated contact
S0336,ARM1,PFS,Progression-free survival (detected at assessment),168,1,censored at last tumour assessment
S0336,ARM1,OS,Overall survival (death in the simulated horizon),194,1,censored at last simulated contact
S0337,ARM2,PFS,Progression-free survival (detected at assessment),5,0,progression detected at scheduled tumour assessment
S0337,ARM2,OS,Overall survival (death in the simulated horizon),33,1,censored at last simulated contact
S0338,ARM2,PFS,Progression-free survival (detected at assessment),168,1,censored at last tumour assessment
S0338,ARM2,OS,Overall survival (death in the simulated horizon),191,1,censored at last simulated contact
S0339,ARM2,PFS,Progression-free survival (detected at assessment),168,1,censored at last tumour assessment
S0339,ARM2,OS,Overall survival (death in the simulated horizon),194,1,censored at last simulated contact
S0340,ARM2,PFS,Progression-free survival (detected at assessment),168,1,censored at last tumour assessment
S0340,ARM2,OS,Overall survival (death in the simulated horizon),168,1,censored at last simulated contact
S0341,ARM2,PFS,Progression-free survival (detected at assessment),168,1,censored at last tumour assessment
S0341,ARM2,OS,Overall survival (death in the simulated horizon),173,1,censored at last simulated contact
S0342,ARM2,PFS,Progression-free survival (detected at assessment),168,1,censored at last tumour assessment
S0342,ARM2,OS,Overall survival (death in the simulated horizon),197,1,censored at last simulated contact
S0343,ARM2,PFS,Progression-free survival (detected at assessment),168,1,censored at last tumour assessment
S0343,ARM2,OS,Overall survival (death in the simulated horizon),189,1,censored at last simulated contact
S0344,ARM2,PFS,Progression-free survival (detected at assessment),168,1,censored at last tumour assessment
S0344,ARM2,OS,Overall survival (death in the simulated horizon),187,1,censored at last simulated contact
S0345,ARM1,PFS,Progression-free survival (detected at assessment),168,1,censored at last tumour assessment
S0345,ARM1,OS,Overall survival (death in the simulated horizon),197,1,censored at last simulated contact
S0346,ARM1,PFS,Progression-free survival (detected at assessment),111,0,progression detected at scheduled tumour assessment
S0346,ARM1,OS,Overall survival (death in the simulated horizon),129,1,censored at last simulated contact
S0347,ARM1,PFS,Progression-free survival (detected at assessment),62,1,censored at last tumour assessment
S0347,ARM1,OS,Overall survival (death in the simulated horizon),62,0,death
S0348,ARM2,PFS,Progression-free survival (detected at assessment),136,1,censored at last tumour assessment
S0348,ARM2,OS,Overall survival (death in the simulated horizon),136,0,death
S0349,ARM1,PFS,Progression-free survival (detected at assessment),168,1,censored at last tumour assessment
S0349,ARM1,OS,Overall survival (death in the simulated horizon),195,1,censored at last simulated contact
S0350,ARM1,PFS,Progression-free survival (detected at assessment),168,1,censored at last tumour assessment
S0350,ARM1,OS,Overall survival (death in the simulated horizon),180,1,censored at last simulated contact
S0351,ARM2,PFS,Progression-free survival (detected at assessment),7,1,censored at last tumour assessment
S0351,ARM2,OS,Overall survival (death in the simulated horizon),37,1,censored at last simulated contact
S0352,ARM1,PFS,Progression-free survival (detected at assessment),168,1,censored at last tumour assessment
S0352,ARM1,OS,Overall survival (death in the simulated horizon),197,1,censored at last simulated contact
S0353,ARM2,PFS,Progression-free survival (detected at assessment),167,1,censored at last tumour assessment
S0353,ARM2,OS,Overall survival (death in the simulated horizon),167,1,censored at last simulated contact
S0354,ARM1,PFS,Progression-free survival (detected at assessment),168,1,censored at last tumour assessment
S0354,ARM1,OS,Overall survival (death in the simulated horizon),197,1,censored at last simulated contact
S0355,ARM1,PFS,Progression-free survival (detected at assessment),168,1,censored at last tumour assessment
S0355,ARM1,OS,Overall survival (death in the simulated horizon),196,1,censored at last simulated contact
S0356,ARM1,PFS,Progression-free survival (detected at assessment),168,1,censored at last tumour assessment
S0356,ARM1,OS,Overall survival (death in the simulated horizon),190,1,censored at last simulated contact
S0357,ARM2,PFS,Progression-free survival (detected at assessment),84,1,censored at last tumour assessment
S0357,ARM2,OS,Overall survival (death in the simulated horizon),111,1,censored at last simulated contact
S0358,ARM2,PFS,Progression-free survival (detected at assessment),168,1,censored at last tumour assessment
S0358,ARM2,OS,Overall survival (death in the simulated horizon),198,1,censored at last simulated contact
S0359,ARM2,PFS,Progression-free survival (detected at assessment),168,1,censored at last tumour assessment
S0359,ARM2,OS,Overall survival (death in the simulated horizon),192,1,censored at last simulated contact
S0360,ARM2,PFS,Progression-free survival (detected at assessment),21,1,censored at last tumour assessment
S0360,ARM2,OS,Overall survival (death in the simulated horizon),51,1,censored at last simulated contact
S0361,ARM1,PFS,Progression-free survival (detected at assessment),168,1,censored at last tumour assessment
S0361,ARM1,OS,Overall survival (death in the simulated horizon),186,1,censored at last simulated contact
S0362,ARM2,PFS,Progression-free survival (detected at assessment),168,1,censored at last tumour assessment
S0362,ARM2,OS,Overall survival (death in the simulated horizon),198,1,censored at last simulated contact
S0363,ARM2,PFS,Progression-free survival (detected at assessment),85,1,censored at last tumour assessment
S0363,ARM2,OS,Overall survival (death in the simulated horizon),113,1,censored at last simulated contact
S0364,ARM1,PFS,Progression-free survival (detected at assessment),168,1,censored at last tumour assessment
S0364,ARM1,OS,Overall survival (death in the simulated horizon),197,1,censored at last simulated contact
S0365,ARM1,PFS,Progression-free survival (detected at assessment),168,1,censored at last tumour assessment
S0365,ARM1,OS,Overall survival (death in the simulated horizon),198,1,censored at last simulated contact
S0366,ARM1,PFS,Progression-free survival (detected at assessment),168,1,censored at last tumour assessment
S0366,ARM1,OS,Overall survival (death in the simulated horizon),168,1,censored at last simulated contact
S0367,ARM2,PFS,Progression-free survival (detected at assessment),168,1,censored at last tumour assessment
S0367,ARM2,OS,Overall survival (death in the simulated horizon),168,1,censored at last simulated contact
S0368,ARM1,PFS,Progression-free survival (detected at assessment),36,1,censored at last tumour assessment
S0368,ARM1,OS,Overall survival (death in the simulated horizon),65,1,censored at last simulated contact
S0369,ARM1,PFS,Progression-free survival (detected at assessment),168,1,censored at last tumour assessment
S0369,ARM1,OS,Overall survival (death in the simulated horizon),196,1,censored at last simulated contact
S0370,ARM1,PFS,Progression-free survival (detected at assessment),168,1,censored at last tumour assessment
S0370,ARM1,OS,Overall survival (death in the simulated horizon),192,1,censored at last simulated contact
S0371,ARM2,PFS,Progression-free survival (detected at assessment),168,1,censored at last tumour assessment
S0371,ARM2,OS,Overall survival (death in the simulated horizon),198,1,censored at last simulated contact
S0372,ARM1,PFS,Progression-free survival (detected at assessment),168,1,censored at last tumour assessment
S0372,ARM1,OS,Overall survival (death in the simulated horizon),198,1,censored at last simulated contact
S0373,ARM2,PFS,Progression-free survival (detected at assessment),168,1,censored at last tumour assessment
S0373,ARM2,OS,Overall survival (death in the simulated horizon),196,1,censored at last simulated contact
S0374,ARM1,PFS,Progression-free survival (detected at assessment),73,0,progression detected at scheduled tumour assessment
S0374,ARM1,OS,Overall survival (death in the simulated horizon),100,1,censored at last simulated contact
S0375,ARM2,PFS,Progression-free survival (detected at assessment),168,1,censored at last tumour assessment
S0375,ARM2,OS,Overall survival (death in the simulated horizon),190,1,censored at last simulated contact
S0376,ARM1,PFS,Progression-free survival (detected at assessment),168,1,censored at last tumour assessment
S0376,ARM1,OS,Overall survival (death in the simulated horizon),196,1,censored at last simulated contact
S0377,ARM2,PFS,Progression-free survival (detected at assessment),168,1,censored at last tumour assessment
S0377,ARM2,OS,Overall survival (death in the simulated horizon),191,1,censored at last simulated contact
S0378,ARM1,PFS,Progression-free survival (detected at assessment),168,1,censored at last tumour assessment
S0378,ARM1,OS,Overall survival (death in the simulated horizon),198,1,censored at last simulated contact
S0379,ARM2,PFS,Progression-free survival (detected at assessment),168,1,censored at last tumour assessment
S0379,ARM2,OS,Overall survival (death in the simulated horizon),196,1,censored at last simulated contact
S0380,ARM1,PFS,Progression-free survival (detected at assessment),58,0,progression detected at scheduled tumour assessment
S0380,ARM1,OS,Overall survival (death in the simulated horizon),83,1,censored at last simulated contact
S0381,ARM1,PFS,Progression-free survival (detected at assessment),142,1,censored at last tumour assessment
S0381,ARM1,OS,Overall survival (death in the simulated horizon),169,1,censored at last simulated contact
S0382,ARM2,PFS,Progression-free survival (detected at assessment),168,1,censored at last tumour assessment
S0382,ARM2,OS,Overall survival (death in the simulated horizon),190,1,censored at last simulated contact
S0383,ARM2,PFS,Progression-free survival (detected at assessment),41,0,progression detected at scheduled tumour assessment
S0383,ARM2,OS,Overall survival (death in the simulated horizon),71,1,censored at last simulated contact
S0384,ARM2,PFS,Progression-free survival (detected at assessment),168,1,censored at last tumour assessment
S0384,ARM2,OS,Overall survival (death in the simulated horizon),179,1,censored at last simulated contact
S0385,ARM1,PFS,Progression-free survival (detected at assessment),168,1,censored at last tumour assessment
S0385,ARM1,OS,Overall survival (death in the simulated horizon),196,1,censored at last simulated contact
S0386,ARM2,PFS,Progression-free survival (detected at assessment),168,1,censored at last tumour assessment
S0386,ARM2,OS,Overall survival (death in the simulated horizon),185,1,censored at last simulated contact
S0387,ARM1,PFS,Progression-free survival (detected at assessment),105,0,progression detected at scheduled tumour assessment
S0387,ARM1,OS,Overall survival (death in the simulated horizon),124,1,censored at last simulated contact
S0388,ARM1,PFS,Progression-free survival (detected at assessment),168,1,censored at last tumour assessment
S0388,ARM1,OS,Overall survival (death in the simulated horizon),183,1,censored at last simulated contact
S0389,ARM2,PFS,Progression-free survival (detected at assessment),168,1,censored at last tumour assessment
S0389,ARM2,OS,Overall survival (death in the simulated horizon),194,1,censored at last simulated contact
S0390,ARM1,PFS,Progression-free survival (detected at assessment),168,1,censored at last tumour assessment
S0390,ARM1,OS,Overall survival (death in the simulated horizon),198,1,censored at last simulated contact
S0391,ARM2,PFS,Progression-free survival (detected at assessment),168,1,censored at last tumour assessment
S0391,ARM2,OS,Overall survival (death in the simulated horizon),186,1,censored at last simulated contact
S0392,ARM1,PFS,Progression-free survival (detected at assessment),168,1,censored at last tumour assessment
S0392,ARM1,OS,Overall survival (death in the simulated horizon),195,1,censored at last simulated contact
S0393,ARM1,PFS,Progression-free survival (detected at assessment),168,1,censored at last tumour assessment
S0393,ARM1,OS,Overall survival (death in the simulated horizon),193,1,censored at last simulated contact
S0394,ARM2,PFS,Progression-free survival (detected at assessment),168,1,censored at last tumour assessment
S0394,ARM2,OS,Overall survival (death in the simulated horizon),194,1,censored at last simulated contact
S0395,ARM2,PFS,Progression-free survival (detected at assessment),168,1,censored at last tumour assessment
S0395,ARM2,OS,Overall survival (death in the simulated horizon),193,1,censored at last simulated contact
S0396,ARM2,PFS,Progression-free survival (detected at assessment),168,1,censored at last tumour assessment
S0396,ARM2,OS,Overall survival (death in the simulated horizon),187,1,censored at last simulated contact
S0397,ARM1,PFS,Progression-free survival (detected at assessment),168,1,censored at last tumour assessment
S0397,ARM1,OS,Overall survival (death in the simulated horizon),192,1,censored at last simulated contact
S0398,ARM2,PFS,Progression-free survival (detected at assessment),21,1,censored at last tumour assessment
S0398,ARM2,OS,Overall survival (death in the simulated horizon),51,1,censored at last simulated contact
S0399,ARM2,PFS,Progression-free survival (detected at assessment),168,1,censored at last tumour assessment
S0399,ARM2,OS,Overall survival (death in the simulated horizon),188,1,censored at last simulated contact
S0400,ARM1,PFS,Progression-free survival (detected at assessment),168,1,censored at last tumour assessment
S0400,ARM1,OS,Overall survival (death in the simulated horizon),186,1,censored at last simulated contact
