USUBJID,AESEQ,AETERM,AESER,AETOXGR,AESTDY,AEENDY,AEACN,AERULE
S0001,1,neutrophils,N,1,7,8,NOT APPLICABLE,
S0001,2,gastrointestinal,N,1,21,22,NOT APPLICABLE,
S0001,3,muscle_weakness,N,2,25,26,NOT APPLICABLE,
S0001,4,platelets,N,1,44,45,reduce_percent,DM008
S0001,5,sweating,N,2,53,54,NOT APPLICABLE,
S0001,6,hemoglobin_normal_12_16_gm,N,2,55,56,NOT APPLICABLE,
S0001,7,fatigue,N,2,56,57,NOT APPLICABLE,
S0001,8,fever,N,1,57,58,NOT APPLICABLE,
S0001,9,upper_respiratory_infections,N,2,76,77,NOT APPLICABLE,
S0001,10,thrombosis,Y,3,87,89,NOT APPLICABLE,
S0001,11,nausea,N,2,103,104,NOT APPLICABLE,
S0001,12,peripheral_motor_neuropathy,N,1,110,111,NOT APPLICABLE,
S0001,13,anorexia,N,1,115,116,NOT APPLICABLE,
S0001,14,neutropenia,N,1,120,121,NOT APPLICABLE,
S0001,15,thrombocytopenia,N,1,128,129,reduce_percent,DM008
S0001,16,catheter_related_infection,N,2,129,130,NOT APPLICABLE,
S0001,17,neuropathy_-_motor,N,1,138,139,NOT APPLICABLE,
S0001,18,decreased_platelet_count,N,1,154,155,reduce_percent,DM008
S0001,19,neutrophil_count_decreased,N,2,155,156,NOT APPLICABLE,
S0001,20,alanine_aminotransferase_increased,N,2,178,185,NOT APPLICABLE,
S0001,21,hyperglycemia,N,1,187,194,NOT APPLICABLE,
S0001,22,neuropathy_-_sensory,N,1,196,203,NOT APPLICABLE,
S0002,1,leukocytes,N,2,18,19,NOT APPLICABLE,
S0002,2,neuropathy_-_motor,N,1,100,101,NOT APPLICABLE,
S0002,3,hypoalbuminemia,N,2,136,137,NOT APPLICABLE,
S0003,1,depression_dominant,N,1,8,9,NOT APPLICABLE,
S0003,2,leukocytes,N,1,14,15,NOT APPLICABLE,
S0003,3,seizures,N,1,19,20,NOT APPLICABLE,
S0003,4,neuropathy_-_motor,N,2,52,53,NOT APPLICABLE,
S0003,5,hypocalcemia,N,1,54,55,NOT APPLICABLE,
S0003,6,platelets,N,1,59,60,reduce_percent,DM008
S0003,7,hypoalbuminemia,N,1,79,80,NOT APPLICABLE,
S0003,8,myalgia,N,2,86,87,NOT APPLICABLE,
S0003,9,dizziness,N,2,130,131,NOT APPLICABLE,
S0003,10,coughing,N,2,138,139,NOT APPLICABLE,
S0003,11,catheter_related_infection,N,1,154,155,NOT APPLICABLE,
S0003,12,fatigue,N,2,156,157,NOT APPLICABLE,
S0003,13,hypernatremia,N,1,178,185,NOT APPLICABLE,
S0003,14,arthralgia,N,1,187,194,NOT APPLICABLE,
S0004,1,catheter_related_infection,N,1,1,2,NOT APPLICABLE,
S0004,2,nausea,N,2,12,13,NOT APPLICABLE,
S0004,3,platelets,N,2,21,22,reduce_percent,DM008
S0004,4,sleeplessness,N,2,23,24,NOT APPLICABLE,
S0004,5,depression_dominant,N,1,39,40,NOT APPLICABLE,
S0004,6,sensory_neuropathy,N,2,43,44,NOT APPLICABLE,
S0004,7,seizures,N,1,50,51,NOT APPLICABLE,
S0004,8,gastrointestinal,N,1,55,56,NOT APPLICABLE,
S0004,9,hypernatremia,N,1,60,61,NOT APPLICABLE,
S0004,10,alopecia,N,1,64,65,NOT APPLICABLE,
S0004,11,arthralgia,N,2,70,71,NOT APPLICABLE,
S0004,12,neuropathy_-_motor,N,2,79,80,NOT APPLICABLE,
S0004,13,myalgia,N,2,82,83,NOT APPLICABLE,
S0004,14,coughing,N,1,89,90,NOT APPLICABLE,
S0004,15,anemia,N,1,100,101,NOT APPLICABLE,
S0004,16,leukocytes,N,2,115,116,NOT APPLICABLE,
S0004,17,sweating,N,1,132,133,NOT APPLICABLE,
S0004,18,hemoglobin_normal_12_16_gm,N,1,142,143,NOT APPLICABLE,
S0004,19,fatigue,N,2,150,151,NOT APPLICABLE,
S0004,20,dyspnea,N,2,160,161,NOT APPLICABLE,
S0004,21,hypocalcemia,N,1,183,190,NOT APPLICABLE,
S0004,22,hypoalbuminemia,N,1,197,204,NOT APPLICABLE,
S0005,1,rash_erythematous_macules_or_papules,N,1,3,4,NOT APPLICABLE,
S0005,2,hypoalbuminemia,N,1,11,12,NOT APPLICABLE,
S0005,3,constipation,N,1,12,13,NOT APPLICABLE,
S0005,4,upper_respiratory_infections,N,1,17,18,NOT APPLICABLE,
S0005,5,seizures,N,1,24,25,NOT APPLICABLE,
S0005,6,hemoglobin_normal_12_16_gm,N,2,25,26,NOT APPLICABLE,
S0005,7,sleeplessness,N,2,26,27,NOT APPLICABLE,
S0005,8,hemoglobin_normal_12_16_gm,Y,3,26,28,NOT APPLICABLE,
S0005,9,fever,N,1,40,41,NOT APPLICABLE,
S0005,10,seizures,Y,3,45,47,NOT APPLICABLE,
S0005,11,nausea,N,2,52,53,NOT APPLICABLE,
S0005,12,leukocytes,N,2,55,56,NOT APPLICABLE,
S0005,13,coughing,N,2,61,62,NOT APPLICABLE,
S0005,14,fatigue,N,1,68,69,NOT APPLICABLE,
S0005,15,alanine_aminotransferase_increased,N,2,72,73,NOT APPLICABLE,
S0005,16,gastrointestinal,N,1,79,80,NOT APPLICABLE,
S0005,17,anemia,N,2,80,81,NOT APPLICABLE,
S0005,18,platelets,N,2,81,82,reduce_percent,DM008
S0005,19,vomiting,N,1,81,82,NOT APPLICABLE,
S0005,20,hypocalcemia,N,2,94,95,NOT APPLICABLE,
S0005,21,hyponatremia,N,1,100,101,NOT APPLICABLE,
S0005,22,myalgia,N,1,101,102,NOT APPLICABLE,
S0005,23,decreased_platelet_count,N,2,102,103,reduce_percent,DM008
S0005,24,alopecia,N,1,115,116,NOT APPLICABLE,
S0005,25,platelets,Y,3,117,119,reduce_percent,DM008
S0005,26,dry_skin,N,1,120,121,NOT APPLICABLE,
S0005,27,dizziness,N,1,128,129,NOT APPLICABLE,
S0005,28,anorexia,N,1,138,139,NOT APPLICABLE,
S0005,29,hypernatremia,N,2,139,140,NOT APPLICABLE,
S0005,30,catheter_related_infection,N,1,144,145,NOT APPLICABLE,
S0005,31,neutropenia,N,2,145,146,NOT APPLICABLE,
S0005,32,hypokalemia,N,2,149,150,NOT APPLICABLE,
S0005,33,neutrophils,Y,3,166,168,NOT APPLICABLE,
S0005,34,depression_dominant,N,2,169,176,NOT APPLICABLE,
S0005,35,arthralgia,N,2,172,179,NOT APPLICABLE,
S0005,36,neuropathy_-_motor,N,1,180,187,NOT APPLICABLE,
S0005,37,dyspnea,N,1,182,189,NOT APPLICABLE,
S0005,38,sensory_neuropathy,N,2,188,195,NOT APPLICABLE,
S0005,39,blurred_vision,N,2,189,196,NOT APPLICABLE,
S0006,1,catheter_related_infection,N,1,2,3,NOT APPLICABLE,
S0006,2,hemoglobin_normal_12_16_gm,N,1,4,5,NOT APPLICABLE,
S0006,3,anorexia,N,2,5,6,NOT APPLICABLE,
S0006,4,hypokalemia,N,1,40,41,NOT APPLICABLE,
S0006,5,platelets,N,1,64,65,reduce_percent,DM008
S0006,6,thrombocytopenia,N,1,65,66,reduce_percent,DM008
S0006,7,nausea,N,2,90,91,NOT APPLICABLE,
S0006,8,blurred_vision,N,1,99,100,NOT APPLICABLE,
S0006,9,vomiting,N,2,116,117,NOT APPLICABLE,
S0006,10,arthralgia,N,2,131,132,NOT APPLICABLE,
S0006,11,headache,N,1,133,134,NOT APPLICABLE,
S0006,12,neuropathy-motor,N,2,150,151,NOT APPLICABLE,
S0006,13,neuropathy_-_sensory,N,1,151,152,NOT APPLICABLE,
S0006,14,neutrophil_count_decreased,N,2,158,159,NOT APPLICABLE,
S0006,15,neuropathy_-_motor,N,2,169,176,NOT APPLICABLE,
S0006,16,seizures,N,1,178,185,NOT APPLICABLE,
S0006,17,allergic_rhinitis_disorder,N,1,179,186,NOT APPLICABLE,
S0006,18,muscle_weakness,N,1,181,188,NOT APPLICABLE,
S0007,1,headache,N,2,10,11,NOT APPLICABLE,
S0007,2,gastrointestinal,N,2,15,16,NOT APPLICABLE,
S0007,3,hemoglobin_normal_12_16_gm,N,2,59,60,NOT APPLICABLE,
S0007,4,thrombosis/thrombus/embolism,Y,3,62,64,NOT APPLICABLE,
S0007,5,arthralgia,N,2,66,67,NOT APPLICABLE,
S0007,6,neuropathy_-_sensory,N,1,67,68,NOT APPLICABLE,
S0007,7,dry_skin,N,2,72,73,NOT APPLICABLE,
S0007,8,fatigue,N,1,77,78,NOT APPLICABLE,
S0007,9,neutrophil_count_decreased,N,1,77,78,NOT APPLICABLE,
S0007,10,hypernatremia,N,1,80,81,NOT APPLICABLE,
S0007,11,muscle_weakness,N,2,84,85,NOT APPLICABLE,
S0007,12,coughing,N,2,94,95,NOT APPLICABLE,
S0007,13,catheter_related_infection,N,1,106,107,NOT APPLICABLE,
S0007,14,dyspnea,N,2,106,107,NOT APPLICABLE,
S0007,15,hypophosphatemia,N,1,106,107,NOT APPLICABLE,
S0007,16,nausea,N,1,111,112,NOT APPLICABLE,
S0007,17,upper_respiratory_infections,N,1,117,118,NOT APPLICABLE,
S0007,18,sweating,N,2,128,129,NOT APPLICABLE,
S0007,19,anemia,N,2,141,142,NOT APPLICABLE,
S0007,20,seizures,N,2,162,163,NOT APPLICABLE,
S0007,21,hyperglycemia,N,1,175,182,NOT APPLICABLE,
S0007,22,platelets,N,2,180,187,NOT APPLICABLE,
S0008,1,dizziness,N,1,3,4,NOT APPLICABLE,
S0008,2,depression_dominant,N,2,15,16,NOT APPLICABLE,
S0008,3,neutropenia,N,2,24,25,NOT APPLICABLE,
S0008,4,hyperkalemia,N,2,38,39,NOT APPLICABLE,
S0008,5,anemia,N,1,54,55,NOT APPLICABLE,
S0008,6,coughing,N,1,76,77,NOT APPLICABLE,
S0008,7,fatigue,N,1,78,79,NOT APPLICABLE,
S0008,8,nausea,N,1,82,83,NOT APPLICABLE,
S0008,9,thrombocytopenia,N,2,85,86,reduce_percent,DM008
S0008,10,neuropathy_-_sensory,N,2,101,102,NOT APPLICABLE,
S0008,11,hypernatremia,N,1,117,118,NOT APPLICABLE,
S0008,12,weight_loss,N,2,119,120,NOT APPLICABLE,
S0008,13,dyspnea,N,1,123,124,NOT APPLICABLE,
S0008,14,platelets,N,1,127,128,reduce_percent,DM008
S0008,15,anxiety,N,2,141,142,NOT APPLICABLE,
S0008,16,muscle_weakness,N,1,159,160,NOT APPLICABLE,
S0008,17,hemoglobin_normal_12_16_gm,N,2,162,163,NOT APPLICABLE,
S0008,18,neutrophil_count_decreased,N,2,165,166,NOT APPLICABLE,
S0008,19,hypertriglyceridemia,N,1,178,185,NOT APPLICABLE,
S0008,20,sleeplessness,N,2,196,203,NOT APPLICABLE,
S0009,1,neutropenia,N,2,18,19,NOT APPLICABLE,
S0009,2,myalgia,N,1,24,25,NOT APPLICABLE,
S0009,3,fatigue,N,1,45,46,NOT APPLICABLE,
S0009,4,neutrophil_count_decreased,N,1,53,54,NOT APPLICABLE,
S0009,5,dizziness,N,2,55,56,NOT APPLICABLE,
S0009,6,alopecia,N,2,81,82,NOT APPLICABLE,
S0009,7,constipation,N,1,84,85,NOT APPLICABLE,
S0009,8,vomiting,N,2,91,92,NOT APPLICABLE,
S0009,9,platelets,N,2,99,100,reduce_percent,DM008
S0009,10,hemoglobin_normal_12_16_gm,N,1,122,123,NOT APPLICABLE,
S0009,11,hypokalemia,N,1,136,137,NOT APPLICABLE,
S0009,12,nausea,N,1,140,141,NOT APPLICABLE,
S0009,13,muscle_weakness,N,1,168,175,NOT APPLICABLE,
S0009,14,neutrophils,N,2,173,180,NOT APPLICABLE,
S0009,15,sweating,N,2,183,190,NOT APPLICABLE,
S0009,16,neuropathy_-_sensory,N,2,197,204,NOT APPLICABLE,
S0010,1,sweating,N,1,12,13,NOT APPLICABLE,
S0010,2,dyspnea,N,2,19,20,NOT APPLICABLE,
S0010,3,arthralgia,N,2,21,22,NOT APPLICABLE,
S0010,4,leukocytes,N,2,27,28,NOT APPLICABLE,
S0010,5,hypophosphatemia,N,2,31,32,NOT APPLICABLE,
S0010,6,catheter_related_infection,N,1,41,42,NOT APPLICABLE,
S0010,7,dizziness,N,2,49,50,NOT APPLICABLE,
S0010,8,gastrointestinal,N,2,54,55,NOT APPLICABLE,
S0010,9,coughing,N,1,55,56,NOT APPLICABLE,
S0010,10,seizures,Y,3,60,62,NOT APPLICABLE,
S0010,11,headache,N,2,63,64,NOT APPLICABLE,
S0010,12,myalgia,N,2,70,71,NOT APPLICABLE,
S0010,13,hypoalbuminemia,N,1,76,77,NOT APPLICABLE,
S0010,14,fever,N,2,77,78,NOT APPLICABLE,
S0010,15,platelets,Y,3,84,86,reduce_percent,DM008
S0010,16,alopecia,N,1,94,95,NOT APPLICABLE,
S0010,17,neuropathy_-_motor,N,2,98,99,NOT APPLICABLE,
S0010,18,sleeplessness,N,2,102,103,NOT APPLICABLE,
S0010,19,platelets,N,2,107,108,reduce_percent,DM008
S0010,20,thrombosis/thrombus/embolism,Y,3,118,120,NOT APPLICABLE,
S0010,21,hypokalemia,N,2,130,131,NOT APPLICABLE,
S0010,22,depression_dominant,N,1,132,133,NOT APPLICABLE,
S0010,23,hypocalcemia,N,2,132,133,NOT APPLICABLE,
S0010,24,rash_erythematous_macules_or_papules,N,2,134,135,NOT APPLICABLE,
S0010,25,constipation,N,1,137,138,NOT APPLICABLE,
S0010,26,neutropenia,N,1,142,143,NOT APPLICABLE,
S0010,27,dry_skin,N,1,147,148,NOT APPLICABLE,
S0010,28,seizures,N,2,148,149,NOT APPLICABLE,
S0010,29,hemoglobin_normal_12_16_gm,N,1,149,150,NOT APPLICABLE,
S0010,30,sensory_neuropathy,N,2,157,158,NOT APPLICABLE,
S0010,31,hypernatremia,N,1,164,165,NOT APPLICABLE,
S0010,32,diarrhea,N,1,166,167,NOT APPLICABLE,
S0010,33,fatigue,N,1,168,175,NOT APPLICABLE,
S0010,34,neutropenia,Y,3,183,197,NOT APPLICABLE,
S0010,35,anorexia,N,1,186,193,NOT APPLICABLE,
S0011,1,hypernatremia,N,1,10,11,NOT APPLICABLE,
S0011,2,catheter_related_infection,N,2,19,20,NOT APPLICABLE,
S0011,3,hemoglobin_normal_12_16_gm,N,2,32,33,NOT APPLICABLE,
S0011,4,depression_dominant,N,2,65,66,NOT APPLICABLE,
S0011,5,sensory_neuropathy,N,2,95,96,NOT APPLICABLE,
S0011,6,leukocytes,N,2,99,100,NOT APPLICABLE,
S0011,7,platelets,N,2,105,106,reduce_percent,DM008
S0011,8,hypoalbuminemia,N,2,123,124,NOT APPLICABLE,
S0011,9,hypocalcemia,N,2,128,129,NOT APPLICABLE,
S0011,10,arthralgia,N,2,145,146,NOT APPLICABLE,
S0011,11,alopecia,N,1,168,175,NOT APPLICABLE,
S0011,12,neuropathy_-_motor,N,1,184,191,NOT APPLICABLE,
S0011,13,myalgia,N,2,197,204,NOT APPLICABLE,
S0012,1,seizures,N,2,4,5,NOT APPLICABLE,
S0012,2,depression_dominant,N,2,13,14,NOT APPLICABLE,
S0012,3,catheter_related_infection,N,1,40,41,NOT APPLICABLE,
S0012,4,sleeplessness,N,2,55,56,NOT APPLICABLE,
S0012,5,hypernatremia,N,1,60,61,NOT APPLICABLE,
S0012,6,fatigue,N,2,72,73,NOT APPLICABLE,
S0012,7,sensory_neuropathy,N,2,79,80,NOT APPLICABLE,
S0012,8,hypoalbuminemia,N,2,80,81,NOT APPLICABLE,
S0012,9,alopecia,N,1,86,87,NOT APPLICABLE,
S0012,10,myalgia,N,2,140,141,NOT APPLICABLE,
S0012,11,neuropathy_-_motor,N,2,147,148,NOT APPLICABLE,
S0012,12,leukocytes,N,1,159,160,NOT APPLICABLE,
S0012,13,constipation,N,2,175,182,NOT APPLICABLE,
S0012,14,coughing,N,2,184,191,NOT APPLICABLE,
S0012,15,hypocalcemia,N,2,192,199,NOT APPLICABLE,
S0013,1,seizures,N,2,1,2,NOT APPLICABLE,
S0013,2,leukocytes,N,1,2,3,NOT APPLICABLE,
S0013,3,hypoalbuminemia,N,2,15,16,NOT APPLICABLE,
S0013,4,coughing,N,2,21,22,NOT APPLICABLE,
S0013,5,hypocalcemia,N,1,25,26,NOT APPLICABLE,
S0013,6,sensory_neuropathy,N,2,31,32,NOT APPLICABLE,
S0013,7,catheter_related_infection,N,2,35,36,NOT APPLICABLE,
S0013,8,neuropathy_-_motor,N,2,36,37,NOT APPLICABLE,
S0013,9,hemoglobin_normal_12_16_gm,N,2,42,43,NOT APPLICABLE,
S0013,10,myalgia,N,1,42,43,NOT APPLICABLE,
S0013,11,depression_dominant,N,1,58,59,NOT APPLICABLE,
S0013,12,constipation,N,1,65,66,NOT APPLICABLE,
S0013,13,alopecia,N,1,67,68,NOT APPLICABLE,
S0013,14,arthralgia,N,1,68,69,NOT APPLICABLE,
S0013,15,hypernatremia,N,1,111,112,NOT APPLICABLE,
S0013,16,sleeplessness,N,2,112,113,NOT APPLICABLE,
S0014,1,arthralgia,N,1,1,2,NOT APPLICABLE,
S0014,2,platelets,N,1,2,3,reduce_percent,DM008
S0014,3,anorexia,N,2,10,11,NOT APPLICABLE,
S0014,4,anxiety,N,1,10,11,NOT APPLICABLE,
S0014,5,platelets,Y,3,13,15,reduce_percent,DM008
S0014,6,alanine_aminotransferase_increased,N,2,18,19,NOT APPLICABLE,
S0014,7,seizures,Y,3,18,20,NOT APPLICABLE,
S0014,8,hypoalbuminemia,N,1,19,20,NOT APPLICABLE,
S0014,9,gastrointestinal,N,1,21,22,NOT APPLICABLE,
S0014,10,hypophosphatemia,N,2,24,25,NOT APPLICABLE,
S0014,11,neuropathy_-_motor,N,2,25,26,NOT APPLICABLE,
S0014,12,dry_skin,N,2,25,26,NOT APPLICABLE,
S0014,13,sleeplessness,N,1,29,30,NOT APPLICABLE,
S0014,14,neutrophils,N,2,35,36,NOT APPLICABLE,
S0014,15,hemoglobin_normal_12_16_gm,N,1,36,37,NOT APPLICABLE,
S0014,16,white_blood_cell_count_decreased,Y,3,43,45,NOT APPLICABLE,
S0014,17,thrombosis/thrombus/embolism,Y,3,47,49,NOT APPLICABLE,
S0014,18,pain_other,N,1,50,51,NOT APPLICABLE,
S0014,19,seizures,N,1,56,57,NOT APPLICABLE,
S0014,20,hypernatremia,N,2,56,57,NOT APPLICABLE,
S0014,21,leukocytes,N,2,56,57,NOT APPLICABLE,
S0014,22,sensory_neuropathy,N,2,57,58,NOT APPLICABLE,
S0014,23,hypocalcemia,N,2,58,59,NOT APPLICABLE,
S0014,24,hypesthesia,N,2,59,60,NOT APPLICABLE,
S0014,25,constipation,N,2,63,64,NOT APPLICABLE,
S0014,26,fever,N,2,70,71,NOT APPLICABLE,
S0014,27,nausea,N,1,71,72,NOT APPLICABLE,
S0014,28,coughing,N,1,72,73,NOT APPLICABLE,
S0014,29,fatigue,N,1,74,75,NOT APPLICABLE,
S0014,30,vomiting,N,2,74,75,NOT APPLICABLE,
S0014,31,dizziness,N,1,77,78,NOT APPLICABLE,
S0014,32,neutrophils,Y,3,81,83,NOT APPLICABLE,
S0014,33,headache,N,1,83,84,NOT APPLICABLE,
S0014,34,dyspnea,N,1,89,90,NOT APPLICABLE,
S0014,35,sweating,N,1,89,90,NOT APPLICABLE,
S0014,36,alopecia,N,1,91,92,NOT APPLICABLE,
S0014,37,hypercholesterolemia,N,2,91,92,NOT APPLICABLE,
S0014,38,hemoglobin_normal_12_16_gm,Y,3,92,94,NOT APPLICABLE,
S0014,39,depression_dominant,N,2,94,95,NOT APPLICABLE,
S0014,40,hyponatremia,N,1,94,95,NOT APPLICABLE,
S0014,41,catheter_related_infection,N,1,97,98,NOT APPLICABLE,
S0014,42,diarrhea,N,2,98,99,NOT APPLICABLE,
S0014,43,muscle_weakness,N,2,99,100,NOT APPLICABLE,
S0014,44,myalgia,N,2,103,104,NOT APPLICABLE,
S0014,45,hypokalemia,N,1,110,111,NOT APPLICABLE,
S0014,46,blurred_vision,N,1,110,111,NOT APPLICABLE,
S0014,47,neutropenia,N,2,115,116,NOT APPLICABLE,
S0014,48,weight_loss,N,1,115,116,NOT APPLICABLE,
S0014,49,anemia,N,1,116,117,NOT APPLICABLE,
S0015,1,anorexia,N,2,9,10,NOT APPLICABLE,
S0015,2,vomiting,N,1,20,21,NOT APPLICABLE,
S0015,3,neutropenia,N,1,33,34,NOT APPLICABLE,
S0015,4,platelets,N,1,35,36,reduce_percent,DM008
S0015,5,nausea,N,1,45,46,NOT APPLICABLE,
S0015,6,thrombocytopenia,N,2,48,49,reduce_percent,DM008
S0015,7,dyspnea,N,1,56,57,NOT APPLICABLE,
S0015,8,fever,N,1,62,63,NOT APPLICABLE,
S0015,9,fatigue,N,1,63,64,NOT APPLICABLE,
S0015,10,muscle_weakness,N,2,92,93,NOT APPLICABLE,
S0015,11,hypocalcemia,N,2,120,121,NOT APPLICABLE,
S0015,12,hyperkalemia,N,1,130,131,NOT APPLICABLE,
S0015,13,sweating,N,2,148,149,NOT APPLICABLE,
S0015,14,neuropathy_-_sensory,N,1,166,167,NOT APPLICABLE,
S0015,15,sleeplessness,N,1,176,183,NOT APPLICABLE,
S0016,1,seizures,N,1,10,11,NOT APPLICABLE,
S0016,2,hypoalbuminemia,N,2,29,30,NOT APPLICABLE,
S0016,3,arthralgia,N,2,32,33,NOT APPLICABLE,
S0016,4,hypocalcemia,N,1,40,41,NOT APPLICABLE,
S0016,5,alopecia,N,1,46,47,NOT APPLICABLE,
S0016,6,dyspnea,N,1,67,68,NOT APPLICABLE,
S0016,7,platelets,N,1,70,71,reduce_percent,DM008
S0016,8,depression_dominant,N,2,83,84,NOT APPLICABLE,
S0016,9,neuropathy_-_motor,N,1,87,88,NOT APPLICABLE,
S0016,10,catheter_related_infection,N,1,90,91,NOT APPLICABLE,
S0016,11,leukocytes,N,1,108,109,NOT APPLICABLE,
S0016,12,fatigue,N,2,115,116,NOT APPLICABLE,
S0016,13,sensory_neuropathy,N,2,117,118,NOT APPLICABLE,
S0016,14,sweating,N,2,155,156,NOT APPLICABLE,
S0016,15,constipation,N,2,170,177,NOT APPLICABLE,
S0016,16,sleeplessness,N,2,170,177,NOT APPLICABLE,
S0016,17,hypernatremia,N,1,173,180,NOT APPLICABLE,
S0016,18,coughing,N,2,187,194,NOT APPLICABLE,
S0016,19,nausea,N,1,192,199,NOT APPLICABLE,
S0016,20,myalgia,N,1,195,202,NOT APPLICABLE,
S0016,21,hypophosphatemia,N,1,196,203,NOT APPLICABLE,
S0017,1,fatigue,N,1,2,3,NOT APPLICABLE,
S0017,2,hyperkalemia,N,2,23,24,NOT APPLICABLE,
S0017,3,vomiting,N,2,52,53,NOT APPLICABLE,
S0017,4,nausea,N,1,96,97,NOT APPLICABLE,
S0017,5,anemia,N,1,97,98,NOT APPLICABLE,
S0017,6,hypoalbuminemia,N,2,101,102,NOT APPLICABLE,
S0017,7,upper_respiratory_infections,N,1,103,104,NOT APPLICABLE,
S0017,8,hypernatremia,N,1,104,105,NOT APPLICABLE,
S0017,9,thrombocytopenia,N,2,122,123,reduce_percent,DM008
S0017,10,platelets,N,1,125,126,reduce_percent,DM008
S0017,11,headache,N,1,135,136,NOT APPLICABLE,
S0017,12,gastrointestinal,N,1,143,144,NOT APPLICABLE,
S0017,13,neutrophils,N,2,144,145,NOT APPLICABLE,
S0017,14,anorexia,N,2,157,158,NOT APPLICABLE,
S0017,15,stomatitis,N,1,158,159,NOT APPLICABLE,
S0017,16,neutrophil_count_decreased,N,2,165,166,NOT APPLICABLE,
S0017,17,neuropathy_-_sensory,N,2,180,187,NOT APPLICABLE,
S0017,18,muscle_weakness,N,2,185,192,NOT APPLICABLE,
S0018,1,hypernatremia,N,1,9,10,NOT APPLICABLE,
S0018,2,platelets,N,1,59,60,reduce_percent,DM008
S0018,3,neutrophils,N,2,78,79,NOT APPLICABLE,
S0018,4,alopecia,N,2,91,92,NOT APPLICABLE,
S0018,5,thrombosis/thrombus/embolism,Y,3,101,103,NOT APPLICABLE,
S0018,6,neuropathy_-_motor,N,1,108,109,NOT APPLICABLE,
S0018,7,nausea,N,1,125,126,NOT APPLICABLE,
S0018,8,neutropenia,N,2,125,126,NOT APPLICABLE,
S0018,9,hemoglobin_normal_12_16_gm,N,1,130,131,NOT APPLICABLE,
S0018,10,neuropathy_-_sensory,N,1,134,135,NOT APPLICABLE,
S0018,11,seizures,N,2,142,143,NOT APPLICABLE,
S0018,12,neutrophil_count_decreased,N,2,146,147,NOT APPLICABLE,
S0018,13,thrombocytopenia,N,1,148,149,NOT APPLICABLE,
S0018,14,muscle_weakness,N,1,163,164,NOT APPLICABLE,
S0019,1,upper_respiratory_infections,N,2,1,2,NOT APPLICABLE,
S0019,2,vomiting,N,2,3,4,NOT APPLICABLE,
S0019,3,nausea,N,1,7,8,NOT APPLICABLE,
S0019,4,sleeplessness,N,1,11,12,NOT APPLICABLE,
S0019,5,catheter_related_infection,N,2,12,13,NOT APPLICABLE,
S0019,6,neuropathy_-_sensory,N,1,15,16,NOT APPLICABLE,
S0019,7,dyspnea,N,2,18,19,NOT APPLICABLE,
S0019,8,seizures,N,2,21,22,NOT APPLICABLE,
S0019,9,muscle_weakness,N,1,23,24,NOT APPLICABLE,
S0019,10,hemoglobin_normal_12_16_gm,N,2,24,25,NOT APPLICABLE,
S0019,11,fatigue,N,2,27,28,NOT APPLICABLE,
S0019,12,hypertriglyceridemia,N,2,28,29,NOT APPLICABLE,
S0019,13,anemia,N,1,39,40,NOT APPLICABLE,
S0019,14,anorexia,N,1,41,42,NOT APPLICABLE,
S0019,15,neutrophil_count_decreased,N,2,55,56,NOT APPLICABLE,
S0019,16,alanine_aminotransferase_increased,N,2,56,57,NOT APPLICABLE,
S0019,17,hyperkalemia,N,1,57,58,NOT APPLICABLE,
S0019,18,fever,N,2,65,66,NOT APPLICABLE,
S0019,19,platelets,N,1,107,108,NOT APPLICABLE,
S0020,1,hemoglobin_normal_12_16_gm,N,1,2,3,NOT APPLICABLE,
S0020,2,myalgia,N,1,16,17,NOT APPLICABLE,
S0020,3,hypernatremia,N,2,17,18,NOT APPLICABLE,
S0020,4,platelets,N,1,21,22,reduce_percent,DM008
S0020,5,muscle_weakness,N,2,21,22,NOT APPLICABLE,
S0020,6,anxiety,N,1,26,27,NOT APPLICABLE,
S0020,7,fatigue,N,1,27,28,NOT APPLICABLE,
S0020,8,anemia,N,1,36,37,NOT APPLICABLE,
S0020,9,gastrointestinal,N,1,47,48,NOT APPLICABLE,
S0020,10,nausea,N,1,49,50,NOT APPLICABLE,
S0020,11,arthralgia,N,2,89,90,NOT APPLICABLE,
S0020,12,dyspnea,N,1,165,166,NOT APPLICABLE,
S0020,13,neutropenia,N,1,178,185,NOT APPLICABLE,
S0020,14,hypocalcemia,N,1,183,190,NOT APPLICABLE,
S0020,15,neuropathy_-_sensory,N,2,190,197,NOT APPLICABLE,
S0020,16,hypertriglyceridemia,N,2,192,199,NOT APPLICABLE,
S0020,17,vomiting,N,1,198,205,NOT APPLICABLE,
S0021,1,hydrocephalus,Y,3,13,15,NOT APPLICABLE,
S0021,2,thrombocytopenia,N,1,28,29,reduce_percent,DM008
S0021,3,neutrophil_count_decreased,N,1,32,33,NOT APPLICABLE,
S0021,4,dyspnea,N,1,40,41,NOT APPLICABLE,
S0021,5,hypophosphatemia,N,2,42,43,NOT APPLICABLE,
S0021,6,alopecia,N,1,76,77,NOT APPLICABLE,
S0021,7,fatigue,N,1,77,78,NOT APPLICABLE,
S0021,8,nausea,N,1,84,85,NOT APPLICABLE,
S0021,9,alanine_aminotransferase_increased,Y,3,94,96,NOT APPLICABLE,
S0021,10,neutropenia,N,2,104,105,NOT APPLICABLE,
S0021,11,platelets,N,2,108,109,reduce_percent,DM008
S0021,12,muscle_weakness,N,2,114,115,NOT APPLICABLE,
S0021,13,vomiting,N,1,138,139,NOT APPLICABLE,
S0021,14,neuropathy_-_motor,N,1,141,142,NOT APPLICABLE,
S0021,15,neuropathy_-_sensory,N,2,154,155,NOT APPLICABLE,
S0021,16,hypernatremia,N,1,160,161,NOT APPLICABLE,
S0021,17,rash_erythematous_macules_or_papules,N,2,188,195,NOT APPLICABLE,
S0022,1,fatigue,N,2,2,3,NOT APPLICABLE,
S0022,2,neuropathy_-_sensory,N,1,3,4,NOT APPLICABLE,
S0022,3,fever,N,1,16,17,NOT APPLICABLE,
S0022,4,sweating,N,2,34,35,NOT APPLICABLE,
S0022,5,platelets,N,1,49,50,reduce_percent,DM008
S0022,6,hemoglobin_normal_12_16_gm,N,1,104,105,NOT APPLICABLE,
S0022,7,nausea,N,2,108,109,NOT APPLICABLE,
S0022,8,neutrophil_count_decreased,N,1,117,118,NOT APPLICABLE,
S0022,9,anxiety,N,2,123,124,NOT APPLICABLE,
S0022,10,muscle_weakness,N,1,134,135,NOT APPLICABLE,
S0022,11,hypernatremia,N,2,154,155,NOT APPLICABLE,
S0022,12,dyspnea,N,2,167,168,NOT APPLICABLE,
S0023,1,neuropathy_-_motor,N,1,7,8,NOT APPLICABLE,
S0023,2,depression_dominant,N,2,10,11,NOT APPLICABLE,
S0023,3,sensory_neuropathy,N,1,16,17,NOT APPLICABLE,
S0023,4,gastrointestinal,N,2,18,19,NOT APPLICABLE,
S0023,5,myalgia,N,2,26,27,NOT APPLICABLE,
S0023,6,anemia,N,2,30,31,NOT APPLICABLE,
S0023,7,blurred_vision,N,2,54,55,NOT APPLICABLE,
S0023,8,constipation,N,2,69,70,NOT APPLICABLE,
S0023,9,hypoalbuminemia,N,1,69,70,NOT APPLICABLE,
S0023,10,arthralgia,N,1,98,99,NOT APPLICABLE,
S0023,11,dizziness,N,2,115,116,NOT APPLICABLE,
S0023,12,catheter_related_infection,N,1,143,144,NOT APPLICABLE,
S0023,13,hypocalcemia,N,1,145,146,NOT APPLICABLE,
S0023,14,coughing,N,2,150,151,NOT APPLICABLE,
S0023,15,seizures,N,1,160,161,NOT APPLICABLE,
S0023,16,hypernatremia,N,2,164,165,NOT APPLICABLE,
S0023,17,leukocytes,N,2,164,165,NOT APPLICABLE,
S0023,18,anorexia,N,1,176,183,NOT APPLICABLE,
S0023,19,fatigue,N,2,189,196,NOT APPLICABLE,
S0023,20,alopecia,N,2,193,200,NOT APPLICABLE,
S0024,1,neutropenia,N,1,5,6,NOT APPLICABLE,
S0024,2,neuropathy_-_sensory,N,2,35,36,NOT APPLICABLE,
S0024,3,thrombocytopenia,N,2,37,38,reduce_percent,DM008
S0024,4,neuropathy-motor,N,2,44,45,NOT APPLICABLE,
S0024,5,nausea,N,1,50,51,NOT APPLICABLE,
S0024,6,headache,N,2,50,51,NOT APPLICABLE,
S0024,7,hypoalbuminemia,N,2,51,52,NOT APPLICABLE,
S0024,8,upper_respiratory_infections,N,2,57,58,NOT APPLICABLE,
S0024,9,white_blood_cell_count_decreased,Y,3,87,89,NOT APPLICABLE,
S0024,10,dyspnea,N,1,101,102,NOT APPLICABLE,
S0024,11,vomiting,N,2,116,117,NOT APPLICABLE,
S0024,12,peripheral_motor_neuropathy,N,1,122,123,NOT APPLICABLE,
S0024,13,platelets,N,1,125,126,reduce_percent,DM008
S0024,14,neutrophil_count_decreased,N,1,130,131,NOT APPLICABLE,
S0024,15,hemoglobin_normal_12_16_gm,N,2,141,142,NOT APPLICABLE,
S0024,16,muscle_weakness,N,1,163,164,NOT APPLICABLE,
S0024,17,catheter_related_infection,N,1,171,178,NOT APPLICABLE,
S0024,18,anxiety,N,1,175,182,NOT APPLICABLE,
S0024,19,alopecia,N,1,176,183,NOT APPLICABLE,
S0024,20,hypernatremia,N,2,182,189,NOT APPLICABLE,
S0024,21,arthralgia,N,2,188,195,NOT APPLICABLE,
S0024,22,anorexia,N,1,197,204,NOT APPLICABLE,
S0025,1,arthralgia,N,2,2,3,NOT APPLICABLE,
S0025,2,leukocytes,N,2,2,3,NOT APPLICABLE,
S0025,3,hypernatremia,N,1,36,37,NOT APPLICABLE,
S0025,4,depression_dominant,N,1,46,47,NOT APPLICABLE,
S0025,5,neuropathy_-_motor,N,1,51,52,NOT APPLICABLE,
S0025,6,hypoalbuminemia,N,2,52,53,NOT APPLICABLE,
S0025,7,sensory_neuropathy,N,2,82,83,NOT APPLICABLE,
S0025,8,seizures,N,1,99,100,NOT APPLICABLE,
S0025,9,catheter_related_infection,N,1,100,101,NOT APPLICABLE,
S0025,10,dyspnea,N,1,156,157,NOT APPLICABLE,
S0025,11,myalgia,N,2,160,161,NOT APPLICABLE,
S0025,12,hypocalcemia,N,2,170,177,NOT APPLICABLE,
S0026,1,coughing,N,2,8,9,NOT APPLICABLE,
S0026,2,headache,N,2,9,10,NOT APPLICABLE,
S0026,3,anorexia,N,1,12,13,NOT APPLICABLE,
S0026,4,peripheral_motor_neuropathy,N,1,87,88,NOT APPLICABLE,
S0026,5,muscle_weakness,N,1,96,97,NOT APPLICABLE,
S0026,6,hypernatremia,N,1,101,102,NOT APPLICABLE,
S0026,7,neuropathy_-_sensory,N,1,121,122,NOT APPLICABLE,
S0026,8,platelets,N,1,121,122,reduce_percent,DM008
S0026,9,neutrophil_count_decreased,N,2,151,152,NOT APPLICABLE,
S0026,10,fatigue,N,2,171,178,NOT APPLICABLE,
S0026,11,anxiety,N,1,181,188,NOT APPLICABLE,
S0026,12,allergic_rhinitis_disorder,N,1,191,198,NOT APPLICABLE,
S0026,13,neutropenia,N,2,194,201,NOT APPLICABLE,
S0027,1,nausea,N,1,18,19,NOT APPLICABLE,
S0027,2,muscle_weakness,N,2,48,49,NOT APPLICABLE,
S0027,3,neuropathy_-_sensory,N,1,79,80,NOT APPLICABLE,
S0027,4,edema,N,2,82,83,NOT APPLICABLE,
S0027,5,fatigue,N,2,109,110,NOT APPLICABLE,
S0027,6,hypocalcemia,N,1,121,122,NOT APPLICABLE,
S0027,7,coughing,N,1,123,124,NOT APPLICABLE,
S0027,8,platelets,N,1,128,129,reduce_percent,DM008
S0027,9,myalgia,N,1,154,155,NOT APPLICABLE,
S0027,10,neutropenia,N,1,154,155,NOT APPLICABLE,
S0027,11,allergic_rhinitis_disorder,N,1,168,175,NOT APPLICABLE,
S0027,12,alopecia,N,1,173,180,NOT APPLICABLE,
S0027,13,hemoglobin_normal_12_16_gm,N,2,185,192,NOT APPLICABLE,
S0027,14,headache,N,1,189,196,NOT APPLICABLE,
S0027,15,neutrophil_count_decreased,N,2,191,198,NOT APPLICABLE,
S0027,16,alanine_aminotransferase_increased,N,1,194,201,NOT APPLICABLE,
S0027,17,neuropathy-motor,N,2,196,203,NOT APPLICABLE,
S0028,1,hypoalbuminemia,N,2,39,40,NOT APPLICABLE,
S0028,2,constipation,N,1,54,55,NOT APPLICABLE,
S0028,3,neuropathy_-_motor,N,2,72,73,NOT APPLICABLE,
S0028,4,alanine_aminotransferase_increased,N,2,74,75,NOT APPLICABLE,
S0028,5,depression_dominant,N,1,92,93,NOT APPLICABLE,
S0028,6,myalgia,N,1,93,94,NOT APPLICABLE,
S0028,7,alopecia,N,2,96,97,NOT APPLICABLE,
S0028,8,leukocytes,N,1,121,122,NOT APPLICABLE,
S0028,9,catheter_related_infection,N,1,129,130,NOT APPLICABLE,
S0028,10,sleeplessness,N,2,138,139,NOT APPLICABLE,
S0028,11,coughing,N,2,152,153,NOT APPLICABLE,
S0028,12,dyspnea,N,2,154,155,NOT APPLICABLE,
S0028,13,seizures,N,1,162,163,NOT APPLICABLE,
S0028,14,hypernatremia,N,1,167,168,NOT APPLICABLE,
S0028,15,hypocalcemia,N,1,171,178,NOT APPLICABLE,
S0028,16,fatigue,N,2,195,202,NOT APPLICABLE,
S0029,1,myalgia,N,1,6,7,NOT APPLICABLE,
S0029,2,sensory_neuropathy,N,1,24,25,NOT APPLICABLE,
S0029,3,leukocytes,N,1,36,37,NOT APPLICABLE,
S0029,4,arthralgia,N,1,37,38,NOT APPLICABLE,
S0029,5,catheter_related_infection,N,2,37,38,NOT APPLICABLE,
S0029,6,hypoalbuminemia,N,1,49,50,NOT APPLICABLE,
S0029,7,hypernatremia,N,1,75,76,NOT APPLICABLE,
S0029,8,neuropathy_-_motor,N,2,81,82,NOT APPLICABLE,
S0029,9,seizures,N,1,100,101,NOT APPLICABLE,
S0029,10,depression_dominant,N,2,115,116,NOT APPLICABLE,
S0030,1,anxiety,N,2,6,7,NOT APPLICABLE,
S0030,2,nausea,N,2,15,16,NOT APPLICABLE,
S0030,3,dyspnea,N,1,18,19,NOT APPLICABLE,
S0030,4,catheter_related_infection,N,1,20,21,NOT APPLICABLE,
S0030,5,hypertriglyceridemia,N,2,24,25,NOT APPLICABLE,
S0030,6,sweating,N,1,35,36,NOT APPLICABLE,
S0030,7,neutrophil_count_decreased,N,2,52,53,NOT APPLICABLE,
S0030,8,thrombosis/thrombus/embolism,Y,3,59,61,NOT APPLICABLE,
S0030,9,platelets,N,1,69,70,reduce_percent,DM008
S0030,10,neutropenia,N,2,71,72,NOT APPLICABLE,
S0030,11,fever,N,2,97,98,NOT APPLICABLE,
S0030,12,coughing,N,2,101,102,NOT APPLICABLE,
S0030,13,hypernatremia,N,2,145,146,NOT APPLICABLE,
S0030,14,edema,N,1,151,152,NOT APPLICABLE,
S0030,15,neuropathy_-_sensory,N,1,159,160,NOT APPLICABLE,
S0030,16,thrombocytopenia,N,1,166,167,reduce_percent,DM008
S0030,17,decreased_platelet_count,N,2,167,168,reduce_percent,DM008
S0030,18,muscle_weakness,N,1,168,175,NOT APPLICABLE,
S0030,19,hypoalbuminemia,N,1,169,176,NOT APPLICABLE,
S0030,20,alanine_aminotransferase_increased,N,2,184,191,NOT APPLICABLE,
S0030,21,hemoglobin_normal_12_16_gm,N,1,186,193,NOT APPLICABLE,
S0031,1,catheter_related_infection,N,2,5,6,NOT APPLICABLE,
S0031,2,sleeplessness,N,1,11,12,NOT APPLICABLE,
S0031,3,leukocytes,N,2,11,12,NOT APPLICABLE,
S0031,4,seizures,N,2,14,15,NOT APPLICABLE,
S0031,5,neuropathy_-_motor,N,1,14,15,NOT APPLICABLE,
S0031,6,depression_dominant,N,2,16,17,NOT APPLICABLE,
S0031,7,coughing,N,1,16,17,NOT APPLICABLE,
S0031,8,neutrophils,Y,3,25,27,NOT APPLICABLE,
S0031,9,hypoalbuminemia,N,2,27,28,NOT APPLICABLE,
S0031,10,neutropenia,N,1,28,29,NOT APPLICABLE,
S0031,11,hypernatremia,N,1,37,38,NOT APPLICABLE,
S0031,12,fatigue,N,1,40,41,NOT APPLICABLE,
S0031,13,sensory_neuropathy,N,1,41,42,NOT APPLICABLE,
S0031,14,arthralgia,N,1,46,47,NOT APPLICABLE,
S0031,15,dizziness,N,2,50,51,NOT APPLICABLE,
S0031,16,hypocalcemia,N,1,50,51,NOT APPLICABLE,
S0031,17,anorexia,N,1,51,52,NOT APPLICABLE,
S0031,18,myalgia,N,1,53,54,NOT APPLICABLE,
S0031,19,nausea,N,2,54,55,NOT APPLICABLE,
S0031,20,anemia,N,1,56,57,NOT APPLICABLE,
S0031,21,platelets,Y,3,56,58,NOT APPLICABLE,
S0031,22,alopecia,N,1,58,59,NOT APPLICABLE,
S0032,1,hemoglobin_normal_12_16_gm,N,2,4,5,NOT APPLICABLE,
S0032,2,neuropathy_-_sensory,N,1,21,22,NOT APPLICABLE,
S0032,3,thrombocytopenia,N,1,29,30,reduce_percent,DM008
S0032,4,alopecia,N,2,32,33,NOT APPLICABLE,
S0032,5,fatigue,N,2,46,47,NOT APPLICABLE,
S0032,6,arthralgia,N,1,49,50,NOT APPLICABLE,
S0032,7,hypokalemia,N,1,57,58,NOT APPLICABLE,
S0032,8,peripheral_motor_neuropathy,N,2,93,94,NOT APPLICABLE,
S0032,9,vomiting,N,1,95,96,NOT APPLICABLE,
S0032,10,muscle_weakness,N,1,117,118,NOT APPLICABLE,
S0032,11,neutrophil_count_decreased,N,2,141,142,NOT APPLICABLE,
S0032,12,anorexia,N,2,147,148,NOT APPLICABLE,
S0032,13,platelets,N,2,178,185,NOT APPLICABLE,
S0033,1,nausea,N,1,8,9,NOT APPLICABLE,
S0033,2,gastrointestinal,N,1,8,9,NOT APPLICABLE,
S0033,3,leukocytes,N,2,28,29,NOT APPLICABLE,
S0033,4,neuropathy_-_motor,N,2,89,90,NOT APPLICABLE,
S0033,5,hypoalbuminemia,N,2,96,97,NOT APPLICABLE,
S0033,6,catheter_related_infection,N,1,107,108,NOT APPLICABLE,
S0033,7,blurred_vision,N,1,110,111,NOT APPLICABLE,
S0033,8,depression_dominant,N,2,114,115,NOT APPLICABLE,
S0033,9,sensory_neuropathy,N,1,117,118,NOT APPLICABLE,
S0033,10,hypernatremia,N,1,127,128,NOT APPLICABLE,
S0033,11,myalgia,N,2,136,137,NOT APPLICABLE,
S0033,12,coughing,N,2,190,197,NOT APPLICABLE,
S0034,1,hypernatremia,N,1,1,2,NOT APPLICABLE,
S0034,2,leukocytes,N,2,16,17,NOT APPLICABLE,
S0034,3,hypoalbuminemia,N,2,26,27,NOT APPLICABLE,
S0034,4,myalgia,N,2,38,39,NOT APPLICABLE,
S0034,5,seizures,N,1,58,59,NOT APPLICABLE,
S0034,6,hypocalcemia,N,1,79,80,NOT APPLICABLE,
S0034,7,depression_dominant,N,1,87,88,NOT APPLICABLE,
S0034,8,sensory_neuropathy,N,1,91,92,NOT APPLICABLE,
S0034,9,neuropathy_-_motor,N,2,110,111,NOT APPLICABLE,
S0035,1,myalgia,N,1,3,4,NOT APPLICABLE,
S0035,2,white_blood_cell_count_decreased,Y,3,3,5,NOT APPLICABLE,
S0035,3,depression_dominant,N,2,9,10,NOT APPLICABLE,
S0035,4,headache,N,2,10,11,NOT APPLICABLE,
S0035,5,pain_other,N,2,33,34,NOT APPLICABLE,
S0035,6,constipation,N,1,36,37,NOT APPLICABLE,
S0035,7,neutrophil_count_decreased,N,2,36,37,NOT APPLICABLE,
S0035,8,nausea,N,2,40,41,NOT APPLICABLE,
S0035,9,dizziness,N,1,66,67,NOT APPLICABLE,
S0035,10,muscle_weakness,N,2,74,75,NOT APPLICABLE,
S0035,11,platelets,N,1,75,76,reduce_percent,DM008
S0035,12,neutrophils,Y,3,85,87,NOT APPLICABLE,
S0035,13,fatigue,N,1,87,88,NOT APPLICABLE,
S0035,14,peripheral_motor_neuropathy,N,2,97,98,NOT APPLICABLE,
S0035,15,dyspnea,N,1,119,120,NOT APPLICABLE,
S0035,16,neutropenia,N,2,135,136,NOT APPLICABLE,
S0035,17,arthralgia,N,1,137,138,NOT APPLICABLE,
S0035,18,hypertriglyceridemia,N,2,139,140,NOT APPLICABLE,
S0035,19,vomiting,N,2,146,147,NOT APPLICABLE,
S0035,20,neuropathy_-_sensory,N,1,155,156,NOT APPLICABLE,
S0035,21,hypernatremia,N,1,163,164,NOT APPLICABLE,
S0035,22,hemoglobin_normal_12_16_gm,N,2,196,203,NOT APPLICABLE,
S0036,1,platelets,N,1,4,5,reduce_percent,DM008
S0036,2,hypernatremia,N,2,32,33,NOT APPLICABLE,
S0036,3,gastrointestinal,N,1,32,33,NOT APPLICABLE,
S0036,4,sensory_neuropathy,N,1,35,36,NOT APPLICABLE,
S0036,5,catheter_related_infection,N,1,43,44,NOT APPLICABLE,
S0036,6,myalgia,N,2,50,51,NOT APPLICABLE,
S0036,7,hypoalbuminemia,N,1,58,59,NOT APPLICABLE,
S0036,8,constipation,N,1,69,70,NOT APPLICABLE,
S0036,9,blurred_vision,N,1,78,79,NOT APPLICABLE,
S0036,10,alopecia,N,1,79,80,NOT APPLICABLE,
S0036,11,arthralgia,N,1,87,88,NOT APPLICABLE,
S0036,12,fatigue,N,2,110,111,NOT APPLICABLE,
S0036,13,sweating,N,1,119,120,NOT APPLICABLE,
S0036,14,dizziness,N,1,120,121,NOT APPLICABLE,
S0036,15,hemoglobin_normal_12_16_gm,N,1,124,125,NOT APPLICABLE,
S0036,16,seizures,N,1,129,130,NOT APPLICABLE,
S0036,17,hypocalcemia,N,2,134,135,NOT APPLICABLE,
S0036,18,anorexia,N,2,137,138,NOT APPLICABLE,
S0036,19,leukocytes,N,1,147,148,NOT APPLICABLE,
S0036,20,seizures,Y,3,154,156,NOT APPLICABLE,
S0036,21,neuropathy_-_motor,N,1,160,161,NOT APPLICABLE,
S0036,22,fever,N,2,165,166,NOT APPLICABLE,
S0036,23,coughing,N,1,169,176,NOT APPLICABLE,
S0036,24,depression_dominant,N,2,170,177,NOT APPLICABLE,
S0037,1,sensory_neuropathy,N,1,26,27,NOT APPLICABLE,
S0037,2,hypoalbuminemia,N,2,93,94,NOT APPLICABLE,
S0037,3,hypernatremia,N,1,95,96,NOT APPLICABLE,
S0037,4,neuropathy_-_motor,N,1,126,127,NOT APPLICABLE,
S0037,5,anorexia,N,2,151,152,NOT APPLICABLE,
S0037,6,myalgia,N,1,161,162,NOT APPLICABLE,
S0037,7,depression_dominant,N,2,186,193,NOT APPLICABLE,
S0037,8,leukocytes,N,2,188,195,NOT APPLICABLE,
S0037,9,seizures,N,2,194,201,NOT APPLICABLE,
S0038,1,platelets,N,2,20,21,reduce_percent,DM008
S0038,2,muscle_weakness,N,1,25,26,NOT APPLICABLE,
S0038,3,gastrointestinal,N,2,27,28,NOT APPLICABLE,
S0038,4,hemoglobin_normal_12_16_gm,N,1,35,36,NOT APPLICABLE,
S0038,5,neutrophil_count_decreased,N,1,38,39,NOT APPLICABLE,
S0038,6,myalgia,N,1,39,40,NOT APPLICABLE,
S0038,7,fatigue,N,2,64,65,NOT APPLICABLE,
S0038,8,thrombocytopenia,N,2,69,70,reduce_percent,DM008
S0038,9,hypocalcemia,N,2,76,77,NOT APPLICABLE,
S0038,10,dyspnea,N,1,88,89,NOT APPLICABLE,
S0038,11,peripheral_motor_neuropathy,N,1,88,89,NOT APPLICABLE,
S0038,12,neuropathy_-_sensory,N,2,97,98,NOT APPLICABLE,
S0038,13,nausea,N,1,111,112,NOT APPLICABLE,
S0038,14,dizziness,N,1,121,122,NOT APPLICABLE,
S0038,15,vomiting,N,1,129,130,NOT APPLICABLE,
S0038,16,anemia,N,1,130,131,NOT APPLICABLE,
S0038,17,sweating,N,1,138,139,NOT APPLICABLE,
S0038,18,catheter_related_infection,N,1,141,142,NOT APPLICABLE,
S0038,19,neutropenia,N,1,144,145,NOT APPLICABLE,
S0038,20,hypertriglyceridemia,N,2,149,150,NOT APPLICABLE,
S0038,21,constipation,N,2,166,167,NOT APPLICABLE,
S0038,22,coughing,N,1,179,186,NOT APPLICABLE,
S0038,23,hyperglycemia,N,2,185,192,NOT APPLICABLE,
S0039,1,sensory_neuropathy,N,2,1,2,NOT APPLICABLE,
S0039,2,seizures,N,2,6,7,NOT APPLICABLE,
S0039,3,catheter_related_infection,N,1,13,14,NOT APPLICABLE,
S0039,4,sleeplessness,N,1,24,25,NOT APPLICABLE,
S0039,5,hypoalbuminemia,N,1,29,30,NOT APPLICABLE,
S0039,6,alopecia,N,2,36,37,NOT APPLICABLE,
S0039,7,fatigue,N,2,40,41,NOT APPLICABLE,
S0039,8,hypophosphatemia,N,2,40,41,NOT APPLICABLE,
S0039,9,blurred_vision,N,1,41,42,NOT APPLICABLE,
S0039,10,dry_skin,N,2,41,42,NOT APPLICABLE,
S0039,11,seizures,Y,3,41,43,NOT APPLICABLE,
S0039,12,anorexia,N,1,42,43,NOT APPLICABLE,
S0039,13,hypernatremia,N,2,45,46,NOT APPLICABLE,
S0039,14,depression_dominant,N,1,46,47,NOT APPLICABLE,
S0039,15,nausea,N,2,52,53,NOT APPLICABLE,
S0039,16,neuropathy_-_motor,N,2,66,67,NOT APPLICABLE,
S0039,17,fever,N,2,66,67,NOT APPLICABLE,
S0039,18,leukocytes,N,2,71,72,NOT APPLICABLE,
S0039,19,gastrointestinal,N,1,79,80,NOT APPLICABLE,
S0039,20,platelets,N,2,82,83,reduce_percent,DM008
S0039,21,sweating,N,1,90,91,NOT APPLICABLE,
S0039,22,coughing,N,2,94,95,NOT APPLICABLE,
S0039,23,hypocalcemia,N,2,96,97,NOT APPLICABLE,
S0039,24,arthralgia,N,2,102,103,NOT APPLICABLE,
S0039,25,neutrophils,Y,3,108,110,NOT APPLICABLE,
S0039,26,headache,N,1,111,112,NOT APPLICABLE,
S0039,27,constipation,N,1,116,117,NOT APPLICABLE,
S0039,28,myalgia,N,1,116,117,NOT APPLICABLE,
S0040,1,neutropenia,N,2,12,13,NOT APPLICABLE,
S0040,2,neutrophil_count_decreased,N,1,13,14,NOT APPLICABLE,
S0040,3,vomiting,N,1,18,19,NOT APPLICABLE,
S0040,4,constipation,N,1,19,20,NOT APPLICABLE,
S0040,5,muscle_weakness,N,2,24,25,NOT APPLICABLE,
S0040,6,hypokalemia,Y,3,32,34,NOT APPLICABLE,
S0040,7,platelets,N,2,45,46,reduce_percent,DM008
S0040,8,rhinitis,N,1,48,49,NOT APPLICABLE,
S0040,9,sleeplessness,N,1,52,53,NOT APPLICABLE,
S0040,10,peripheral_motor_neuropathy,N,1,63,64,NOT APPLICABLE,
S0040,11,weight_loss,N,1,67,68,NOT APPLICABLE,
S0040,12,dizziness,N,2,69,70,NOT APPLICABLE,
S0040,13,fatigue,N,2,77,78,NOT APPLICABLE,
S0040,14,hemoglobin_normal_12_16_gm,N,1,85,86,NOT APPLICABLE,
S0040,15,dyspnea,N,1,87,88,NOT APPLICABLE,
S0040,16,neuropathy_-_sensory,N,2,113,114,NOT APPLICABLE,
S0040,17,arthralgia,N,1,114,115,NOT APPLICABLE,
S0040,18,hypernatremia,N,2,168,175,NOT APPLICABLE,
S0040,19,dysgeusia,N,1,177,184,NOT APPLICABLE,
S0040,20,hypokalemia,N,1,194,201,NOT APPLICABLE,
S0041,1,muscle_weakness,N,2,8,9,NOT APPLICABLE,
S0041,2,neuropathy-motor,N,1,10,11,NOT APPLICABLE,
S0041,3,sweating,N,1,12,13,NOT APPLICABLE,
S0041,4,neuropathy_-_sensory,N,1,14,15,NOT APPLICABLE,
S0041,5,nausea,N,1,21,22,NOT APPLICABLE,
S0041,6,anemia,N,1,21,22,NOT APPLICABLE,
S0041,7,gastrointestinal,N,1,21,22,NOT APPLICABLE,
S0041,8,hemoglobin_normal_12_16_gm,N,1,24,25,NOT APPLICABLE,
S0041,9,thrombocytopenia,N,2,27,28,reduce_percent,DM008
S0041,10,arthralgia,N,1,31,32,NOT APPLICABLE,
S0041,11,alanine_aminotransferase_increased,N,2,37,38,NOT APPLICABLE,
S0041,12,neutrophil_count_decreased,N,1,45,46,NOT APPLICABLE,
S0041,13,alopecia,N,2,52,53,NOT APPLICABLE,
S0041,14,headache,N,1,56,57,NOT APPLICABLE,
S0041,15,platelets,N,2,61,62,NOT APPLICABLE,
S0041,16,neutropenia,N,1,68,69,NOT APPLICABLE,
S0041,17,dyspnea,N,1,76,77,NOT APPLICABLE,
S0041,18,fatigue,N,2,78,79,NOT APPLICABLE,
S0041,19,hypernatremia,N,1,78,79,NOT APPLICABLE,
S0041,20,neuropathy_-_motor,N,1,86,87,NOT APPLICABLE,
S0041,21,constipation,N,2,88,89,NOT APPLICABLE,
S0042,1,hypertriglyceridemia,N,1,6,7,NOT APPLICABLE,
S0042,2,dyspnea,N,1,29,30,NOT APPLICABLE,
S0042,3,coughing,N,1,31,32,NOT APPLICABLE,
S0042,4,anxiety,N,1,42,43,NOT APPLICABLE,
S0042,5,gastrointestinal,N,2,44,45,NOT APPLICABLE,
S0042,6,hemoglobin_normal_12_16_gm,N,1,47,48,NOT APPLICABLE,
S0042,7,hydrocephalus,Y,3,60,62,NOT APPLICABLE,
S0042,8,hypokalemia,N,2,71,72,NOT APPLICABLE,
S0042,9,platelets,N,2,104,105,reduce_percent,DM008
S0042,10,neuropathy_-_sensory,N,2,141,142,NOT APPLICABLE,
S0042,11,nausea,N,1,153,154,NOT APPLICABLE,
S0042,12,neutrophil_count_decreased,N,2,154,155,NOT APPLICABLE,
S0042,13,constipation,N,2,169,176,NOT APPLICABLE,
S0042,14,muscle_weakness,N,2,193,200,NOT APPLICABLE,
S0042,15,headache,N,1,194,201,NOT APPLICABLE,
S0043,1,pain_other,N,2,4,5,NOT APPLICABLE,
S0043,2,hypophosphatemia,N,2,5,6,NOT APPLICABLE,
S0043,3,sleeplessness,N,2,6,7,NOT APPLICABLE,
S0043,4,neuropathy_-_motor,N,2,7,8,NOT APPLICABLE,
S0043,5,hemoglobin_normal_12_16_gm,Y,3,7,9,NOT APPLICABLE,
S0043,6,diarrhea,N,2,8,9,NOT APPLICABLE,
S0043,7,alanine_aminotransferase_increased,N,2,11,12,NOT APPLICABLE,
S0043,8,platelets,Y,3,12,14,reduce_percent,DM008
S0043,9,seizures,Y,3,14,16,NOT APPLICABLE,
S0043,10,upper_respiratory_infections,N,1,15,16,NOT APPLICABLE,
S0043,11,sensory_neuropathy,N,1,18,19,NOT APPLICABLE,
S0043,12,fever,N,2,20,21,NOT APPLICABLE,
S0043,13,hemoglobin_normal_12_16_gm,N,2,21,22,NOT APPLICABLE,
S0043,14,arthralgia,N,2,21,22,NOT APPLICABLE,
S0043,15,myalgia,N,2,24,25,NOT APPLICABLE,
S0043,16,leukocytes,N,1,24,25,NOT APPLICABLE,
S0043,17,fatigue,N,2,26,27,NOT APPLICABLE,
S0043,18,dyspnea,N,1,26,27,NOT APPLICABLE,
S0043,19,sweating,N,2,26,27,NOT APPLICABLE,
S0043,20,hypoalbuminemia,N,1,27,28,NOT APPLICABLE,
S0043,21,anxiety,N,1,29,30,NOT APPLICABLE,
S0043,22,neutrophils,Y,3,29,31,NOT APPLICABLE,
S0043,23,catheter_related_infection,N,2,30,31,NOT APPLICABLE,
S0043,24,alopecia,N,1,32,33,NOT APPLICABLE,
S0043,25,nausea,N,2,34,35,NOT APPLICABLE,
S0043,26,anemia,N,2,36,37,NOT APPLICABLE,
S0043,27,platelets,N,2,40,41,NOT APPLICABLE,
S0043,28,coughing,N,2,40,41,NOT APPLICABLE,
S0043,29,blurred_vision,N,1,41,42,NOT APPLICABLE,
S0043,30,constipation,N,2,42,43,NOT APPLICABLE,
S0043,31,hypernatremia,N,1,43,44,NOT APPLICABLE,
S0043,32,seizures,N,1,44,45,NOT APPLICABLE,
S0043,33,anorexia,N,1,45,46,NOT APPLICABLE,
S0043,34,hypocalcemia,N,1,46,47,NOT APPLICABLE,
S0043,35,vomiting,N,2,47,48,NOT APPLICABLE,
S0043,36,gastrointestinal,N,1,49,50,NOT APPLICABLE,
S0043,37,dizziness,N,2,52,53,NOT APPLICABLE,
S0043,38,depression_dominant,N,1,54,55,NOT APPLICABLE,
S0043,39,neutropenia,N,2,55,56,NOT APPLICABLE,
S0043,40,headache,N,1,56,57,NOT APPLICABLE,
S0044,1,hypernatremia,N,1,56,57,NOT APPLICABLE,
S0044,2,depression_dominant,N,1,70,71,NOT APPLICABLE,
S0044,3,myalgia,N,1,80,81,NOT APPLICABLE,
S0044,4,hypoalbuminemia,N,1,80,81,NOT APPLICABLE,
S0044,5,leukocytes,N,2,160,161,NOT APPLICABLE,
S0044,6,neuropathy_-_motor,N,2,167,168,NOT APPLICABLE,
S0045,1,hemoglobin_normal_12_16_gm,N,1,3,4,NOT APPLICABLE,
S0045,2,dizziness,N,1,5,6,NOT APPLICABLE,
S0045,3,gastrointestinal,N,2,5,6,NOT APPLICABLE,
S0045,4,seizures,N,2,6,7,NOT APPLICABLE,
S0045,5,neutrophils,Y,3,7,9,NOT APPLICABLE,
S0045,6,hypoalbuminemia,N,2,8,9,NOT APPLICABLE,
S0045,7,blurred_vision,N,2,10,11,NOT APPLICABLE,
S0045,8,fatigue,N,1,11,12,NOT APPLICABLE,
S0045,9,platelets,N,2,12,13,NOT APPLICABLE,
S0045,10,coughing,N,2,13,14,NOT APPLICABLE,
S0045,11,hyperglycemia,N,1,13,14,NOT APPLICABLE,
S0045,12,myalgia,N,2,16,17,NOT APPLICABLE,
S0045,13,dyspnea,N,2,16,17,NOT APPLICABLE,
S0045,14,sleeplessness,N,2,17,18,NOT APPLICABLE,
S0045,15,hypernatremia,N,1,19,20,NOT APPLICABLE,
S0045,16,neutropenia,N,1,19,20,NOT APPLICABLE,
S0045,17,nausea,N,1,20,21,NOT APPLICABLE,
S0045,18,platelets,Y,3,21,23,NOT APPLICABLE,
S0045,19,neuropathy_-_motor,N,2,22,23,NOT APPLICABLE,
S0045,20,catheter_related_infection,N,2,22,23,NOT APPLICABLE,
S0045,21,constipation,N,1,27,28,NOT APPLICABLE,
S0045,22,sweating,N,1,27,28,NOT APPLICABLE,
S0045,23,alopecia,N,1,28,29,NOT APPLICABLE,
S0045,24,depression_dominant,N,2,28,29,NOT APPLICABLE,
S0045,25,hypokalemia,N,2,28,29,NOT APPLICABLE,
S0045,26,dry_skin,N,1,28,29,NOT APPLICABLE,
S0045,27,hypocalcemia,N,1,29,30,NOT APPLICABLE,
S0045,28,fever,N,1,30,31,NOT APPLICABLE,
S0045,29,sensory_neuropathy,N,1,30,31,NOT APPLICABLE,
S0045,30,headache,N,2,31,32,NOT APPLICABLE,
S0045,31,peripheral_motor_neuropathy,N,2,31,32,NOT APPLICABLE,
S0045,32,leukocytes,N,1,33,34,NOT APPLICABLE,
S0045,33,arthralgia,N,2,34,35,NOT APPLICABLE,
S0045,34,anemia,N,1,35,36,NOT APPLICABLE,
S0045,35,anorexia,N,1,36,37,NOT APPLICABLE,
S0046,1,dizziness,N,2,11,12,NOT APPLICABLE,
S0046,2,platelets,Y,3,20,22,reduce_percent,DM008
S0046,3,catheter_related_infection,N,2,28,29,NOT APPLICABLE,
S0046,4,myalgia,N,2,30,31,NOT APPLICABLE,
S0046,5,platelets,N,1,33,34,reduce_percent,DM008
S0046,6,neuropathy_-_sensory,N,2,43,44,NOT APPLICABLE,
S0046,7,hypernatremia,N,1,61,62,NOT APPLICABLE,
S0046,8,dry_skin,N,1,88,89,NOT APPLICABLE,
S0046,9,hyperkalemia,N,2,100,101,NOT APPLICABLE,
S0046,10,alopecia,N,2,103,104,NOT APPLICABLE,
S0046,11,hypertriglyceridemia,N,1,117,118,NOT APPLICABLE,
S0046,12,arthralgia,N,1,118,119,NOT APPLICABLE,
S0046,13,constipation,N,1,121,122,NOT APPLICABLE,
S0046,14,neutrophil_count_decreased,N,2,121,122,NOT APPLICABLE,
S0046,15,vomiting,N,1,129,130,NOT APPLICABLE,
S0046,16,nausea,N,1,148,149,NOT APPLICABLE,
S0046,17,neutropenia,N,1,158,159,NOT APPLICABLE,
S0046,18,muscle_weakness,N,2,162,163,NOT APPLICABLE,
S0046,19,sweating,N,2,190,197,NOT APPLICABLE,
S0047,1,muscle_weakness,N,1,24,25,NOT APPLICABLE,
S0047,2,depression_dominant,N,1,31,32,NOT APPLICABLE,
S0047,3,seizures,Y,3,38,40,NOT APPLICABLE,
S0047,4,rash_erythematous_macules_or_papules,N,1,39,40,NOT APPLICABLE,
S0047,5,gastrointestinal,N,1,41,42,NOT APPLICABLE,
S0047,6,hypokalemia,N,2,42,43,NOT APPLICABLE,
S0047,7,seizures,N,2,43,44,NOT APPLICABLE,
S0047,8,vomiting,N,1,43,44,NOT APPLICABLE,
S0047,9,nausea,N,1,47,48,NOT APPLICABLE,
S0047,10,hemoglobin_normal_12_16_gm,N,1,49,50,NOT APPLICABLE,
S0047,11,upper_respiratory_infections,N,2,52,53,NOT APPLICABLE,
S0047,12,neutrophils,Y,3,52,54,NOT APPLICABLE,
S0047,13,platelets,N,2,58,59,reduce_percent,DM008
S0047,14,fatigue,N,1,60,61,NOT APPLICABLE,
S0047,15,sleeplessness,N,1,65,66,NOT APPLICABLE,
S0047,16,anorexia,N,1,69,70,NOT APPLICABLE,
S0047,17,hypophosphatemia,N,2,71,72,NOT APPLICABLE,
S0047,18,blurred_vision,N,2,74,75,NOT APPLICABLE,
S0047,19,platelets,Y,3,76,78,reduce_percent,DM008
S0047,20,thrombosis/thrombus/embolism,Y,3,78,80,NOT APPLICABLE,
S0047,21,alopecia,N,2,89,90,NOT APPLICABLE,
S0047,22,dyspnea,N,1,90,91,NOT APPLICABLE,
S0047,23,hypocalcemia,N,1,91,92,NOT APPLICABLE,
S0047,24,anxiety,N,1,92,93,NOT APPLICABLE,
S0047,25,leukocytes_(total_wbc),N,1,94,95,NOT APPLICABLE,
S0047,26,dry_skin,N,1,95,96,NOT APPLICABLE,
S0047,27,sweating,N,1,99,100,NOT APPLICABLE,
S0047,28,anemia,N,1,106,107,NOT APPLICABLE,
S0047,29,arthralgia,N,2,112,113,NOT APPLICABLE,
S0047,30,myalgia,N,1,125,126,NOT APPLICABLE,
S0047,31,hypoalbuminemia,N,2,126,127,NOT APPLICABLE,
S0047,32,catheter_related_infection,N,2,128,129,NOT APPLICABLE,
S0047,33,leukocytes,N,1,129,130,NOT APPLICABLE,
S0047,34,hypokalemia,Y,3,132,134,NOT APPLICABLE,
S0047,35,hypernatremia,N,1,137,138,NOT APPLICABLE,
S0047,36,neuropathy_-_motor,N,1,155,156,NOT APPLICABLE,
S0047,37,fever,N,1,170,177,NOT APPLICABLE,
S0047,38,dizziness,N,2,171,178,NOT APPLICABLE,
S0047,39,sensory_neuropathy,N,2,171,178,NOT APPLICABLE,
S0047,40,coughing,N,1,175,182,NOT APPLICABLE,
S0047,41,constipation,N,2,188,195,NOT APPLICABLE,
S0048,1,vomiting,N,1,5,6,NOT APPLICABLE,
S0048,2,hemoglobin_normal_12_16_gm,N,1,30,31,NOT APPLICABLE,
S0048,3,anxiety,N,2,30,31,NOT APPLICABLE,
S0048,4,neuropathy_-_sensory,N,1,33,34,NOT APPLICABLE,
S0048,5,gastrointestinal,N,2,34,35,NOT APPLICABLE,
S0048,6,fever,N,2,40,41,NOT APPLICABLE,
S0048,7,neutropenia,N,2,59,60,NOT APPLICABLE,
S0048,8,muscle_weakness,N,1,61,62,NOT APPLICABLE,
S0048,9,platelets,N,2,62,63,reduce_percent,DM008
S0048,10,thrombocytopenia,N,2,71,72,reduce_percent,DM008
S0048,11,catheter_related_infection,N,2,76,77,NOT APPLICABLE,
S0048,12,hypernatremia,N,2,88,89,NOT APPLICABLE,
S0048,13,sweating,N,1,114,115,NOT APPLICABLE,
S0048,14,nausea,N,2,119,120,NOT APPLICABLE,
S0048,15,fatigue,N,1,137,138,NOT APPLICABLE,
S0048,16,arthralgia,N,2,148,149,NOT APPLICABLE,
S0048,17,dyspnea,N,1,174,181,NOT APPLICABLE,
S0048,18,neutrophil_count_decreased,N,1,177,184,NOT APPLICABLE,
S0048,19,alopecia,N,1,180,187,NOT APPLICABLE,
S0049,1,catheter_related_infection,N,1,3,4,NOT APPLICABLE,
S0049,2,leukocytes,N,2,13,14,NOT APPLICABLE,
S0049,3,coughing,N,2,20,21,NOT APPLICABLE,
S0049,4,hemoglobin_normal_12_16_gm,N,1,23,24,NOT APPLICABLE,
S0049,5,hypocalcemia,N,2,27,28,NOT APPLICABLE,
S0049,6,fever,N,2,34,35,NOT APPLICABLE,
S0049,7,alopecia,N,2,41,42,NOT APPLICABLE,
S0049,8,seizures,N,2,55,56,NOT APPLICABLE,
S0049,9,fatigue,N,2,64,65,NOT APPLICABLE,
S0049,10,blurred_vision,N,1,95,96,NOT APPLICABLE,
S0049,11,anxiety,N,1,96,97,NOT APPLICABLE,
S0049,12,neutropenia,N,1,102,103,NOT APPLICABLE,
S0049,13,myalgia,N,2,111,112,NOT APPLICABLE,
S0049,14,seizures,Y,3,113,115,NOT APPLICABLE,
S0049,15,neuropathy_-_motor,N,2,116,117,NOT APPLICABLE,
S0049,16,platelets,Y,3,119,121,reduce_percent,DM008
S0049,17,anorexia,N,1,136,137,NOT APPLICABLE,
S0049,18,constipation,N,1,142,143,NOT APPLICABLE,
S0049,19,depression_dominant,N,1,149,150,NOT APPLICABLE,
S0049,20,hypoalbuminemia,N,1,154,155,NOT APPLICABLE,
S0049,21,platelets,N,2,170,177,NOT APPLICABLE,
S0049,22,hypernatremia,N,1,170,177,NOT APPLICABLE,
S0049,23,dizziness,N,1,177,184,NOT APPLICABLE,
S0049,24,arthralgia,N,2,188,195,NOT APPLICABLE,
S0050,1,neuropathy_-_sensory,N,1,15,16,NOT APPLICABLE,
S0050,2,myalgia,N,1,21,22,NOT APPLICABLE,
S0050,3,neutrophils,N,1,29,30,NOT APPLICABLE,
S0050,4,dyspnea,N,1,37,38,NOT APPLICABLE,
S0050,5,vomiting,N,1,39,40,NOT APPLICABLE,
S0050,6,dry_skin,N,2,58,59,NOT APPLICABLE,
S0050,7,dizziness,N,2,67,68,NOT APPLICABLE,
S0050,8,hypokalemia,N,2,69,70,NOT APPLICABLE,
S0050,9,thrombocytopenia,N,2,74,75,reduce_percent,DM008
S0050,10,alopecia,N,2,84,85,NOT APPLICABLE,
S0050,11,muscle_weakness,N,1,99,100,NOT APPLICABLE,
S0050,12,neutropenia,N,2,105,106,NOT APPLICABLE,
S0050,13,decreased_platelet_count,N,1,147,148,reduce_percent,DM008
S0050,14,nausea,N,2,153,154,NOT APPLICABLE,
S0050,15,hemoglobin_normal_12_16_gm,N,2,161,162,NOT APPLICABLE,
S0050,16,hypernatremia,N,1,163,164,NOT APPLICABLE,
S0050,17,catheter_related_infection,N,1,166,167,NOT APPLICABLE,
S0050,18,fever,N,1,171,178,NOT APPLICABLE,
S0050,19,anxiety,N,2,175,182,NOT APPLICABLE,
S0051,1,dyspnea,N,1,1,2,NOT APPLICABLE,
S0051,2,upper_respiratory_infections,N,2,6,7,NOT APPLICABLE,
S0051,3,platelets,N,2,7,8,reduce_percent,DM008
S0051,4,neutropenia,N,1,8,9,NOT APPLICABLE,
S0051,5,vomiting,N,1,12,13,NOT APPLICABLE,
S0051,6,neuropathy_-_sensory,N,2,13,14,NOT APPLICABLE,
S0051,7,neutrophil_count_decreased,N,2,15,16,NOT APPLICABLE,
S0051,8,stomatitis,N,1,16,17,NOT APPLICABLE,
S0051,9,nausea,N,2,18,19,NOT APPLICABLE,
S0051,10,arthralgia,N,2,28,29,NOT APPLICABLE,
S0051,11,muscle_weakness,N,1,31,32,NOT APPLICABLE,
S0051,12,hypophosphatemia,N,2,33,34,NOT APPLICABLE,
S0051,13,neuropathy-motor,N,1,36,37,NOT APPLICABLE,
S0051,14,catheter_related_infection,N,1,40,41,NOT APPLICABLE,
S0051,15,fatigue,N,1,44,45,NOT APPLICABLE,
S0051,16,constipation,N,1,44,45,NOT APPLICABLE,
S0051,17,myalgia,N,2,44,45,NOT APPLICABLE,
S0051,18,hemoglobin_normal_12_16_gm,N,2,46,47,NOT APPLICABLE,
S0051,19,fever,N,1,47,48,NOT APPLICABLE,
S0051,20,rhinitis,N,1,48,49,NOT APPLICABLE,
S0051,21,hypernatremia,N,1,49,50,NOT APPLICABLE,
S0052,1,neuropathy-motor,N,2,8,9,NOT APPLICABLE,
S0052,2,hypernatremia,N,2,20,21,NOT APPLICABLE,
S0052,3,platelets,N,1,22,23,reduce_percent,DM008
S0052,4,upper_respiratory_infections,N,1,37,38,NOT APPLICABLE,
S0052,5,decreased_platelet_count,N,2,39,40,reduce_percent,DM008
S0052,6,anemia,N,2,58,59,NOT APPLICABLE,
S0052,7,neuropathy_-_sensory,N,1,72,73,NOT APPLICABLE,
S0052,8,constipation,N,1,81,82,NOT APPLICABLE,
S0052,9,vomiting,N,1,86,87,NOT APPLICABLE,
S0052,10,nausea,N,1,89,90,NOT APPLICABLE,
S0052,11,headache,N,1,90,91,NOT APPLICABLE,
S0052,12,muscle_weakness,N,1,145,146,NOT APPLICABLE,
S0052,13,neutrophil_count_decreased,N,2,145,146,NOT APPLICABLE,
S0052,14,fatigue,N,1,147,148,NOT APPLICABLE,
S0052,15,anorexia,N,1,147,148,NOT APPLICABLE,
S0052,16,myalgia,N,2,152,153,NOT APPLICABLE,
S0052,17,hypertriglyceridemia,N,2,158,159,NOT APPLICABLE,
S0052,18,neutropenia,N,2,160,161,NOT APPLICABLE,
S0052,19,dizziness,N,1,173,180,NOT APPLICABLE,
S0052,20,dyspnea,N,2,195,202,NOT APPLICABLE,
S0053,1,alopecia,N,2,4,5,NOT APPLICABLE,
S0053,2,hemoglobin_normal_12_16_gm,N,1,4,5,NOT APPLICABLE,
S0053,3,leukocytes,N,2,13,14,NOT APPLICABLE,
S0053,4,constipation,N,2,16,17,NOT APPLICABLE,
S0053,5,seizures,Y,3,37,39,NOT APPLICABLE,
S0053,6,sweating,N,1,38,39,NOT APPLICABLE,
S0053,7,hypocalcemia,N,2,41,42,NOT APPLICABLE,
S0053,8,depression_dominant,N,1,42,43,NOT APPLICABLE,
S0053,9,dyspnea,N,2,46,47,NOT APPLICABLE,
S0053,10,headache,N,1,53,54,NOT APPLICABLE,
S0053,11,hypercholesterolemia,N,2,67,68,NOT APPLICABLE,
S0053,12,hypophosphatemia,N,1,101,102,NOT APPLICABLE,
S0053,13,seizures,N,2,103,104,NOT APPLICABLE,
S0053,14,upper_respiratory_infections,N,1,105,106,NOT APPLICABLE,
S0053,15,sleeplessness,N,2,107,108,NOT APPLICABLE,
S0053,16,catheter_related_infection,N,2,108,109,NOT APPLICABLE,
S0053,17,alanine_aminotransferase_increased,N,1,110,111,NOT APPLICABLE,
S0053,18,thrombosis/thrombus/embolism,Y,3,123,125,NOT APPLICABLE,
S0053,19,coughing,N,2,124,125,NOT APPLICABLE,
S0053,20,fever,N,2,127,128,NOT APPLICABLE,
S0053,21,white_blood_cell_count_decreased,Y,3,133,135,NOT APPLICABLE,
S0053,22,hypoalbuminemia,N,1,135,136,NOT APPLICABLE,
S0053,23,arthralgia,N,1,138,139,NOT APPLICABLE,
S0053,24,anxiety,N,1,141,142,NOT APPLICABLE,
S0053,25,blurred_vision,N,1,141,142,NOT APPLICABLE,
S0053,26,dizziness,N,1,150,151,NOT APPLICABLE,
S0053,27,diarrhea,N,1,155,156,NOT APPLICABLE,
S0053,28,neuropathy_-_motor,N,1,158,159,NOT APPLICABLE,
S0053,29,dry_skin,N,1,166,167,NOT APPLICABLE,
S0053,30,myalgia,N,1,167,168,NOT APPLICABLE,
S0053,31,hypernatremia,N,1,168,175,NOT APPLICABLE,
S0053,32,sensory_neuropathy,N,1,170,177,NOT APPLICABLE,
S0053,33,anorexia,N,2,171,178,NOT APPLICABLE,
S0053,34,anemia,N,1,173,180,NOT APPLICABLE,
S0053,35,nausea,N,2,174,181,NOT APPLICABLE,
S0053,36,gastrointestinal,N,1,185,192,NOT APPLICABLE,
S0053,37,fatigue,N,1,196,203,NOT APPLICABLE,
S0054,1,neuropathy_-_sensory,N,2,3,4,NOT APPLICABLE,
S0054,2,dyspnea,N,2,30,31,NOT APPLICABLE,
S0054,3,neutropenia,N,2,40,41,NOT APPLICABLE,
S0054,4,constipation,N,2,59,60,NOT APPLICABLE,
S0054,5,upper_respiratory_infections,N,1,73,74,NOT APPLICABLE,
S0054,6,nausea,N,2,77,78,NOT APPLICABLE,
S0054,7,thrombocytopenia,N,1,130,131,reduce_percent,DM008
S0054,8,arthralgia,N,1,158,159,NOT APPLICABLE,
S0054,9,neutrophil_count_decreased,N,1,159,160,NOT APPLICABLE,
S0054,10,hemoglobin_normal_12_16_gm,N,1,161,162,NOT APPLICABLE,
S0054,11,hyperuricemia,N,1,161,162,NOT APPLICABLE,
S0054,12,platelets,N,2,162,163,reduce_percent,DM008
S0054,13,platelets,Y,3,167,181,reduce_percent,DM008
S0054,14,allergic_rhinitis_disorder,N,1,176,183,NOT APPLICABLE,
S0054,15,fatigue,N,2,179,186,NOT APPLICABLE,
S0054,16,dizziness,N,2,182,189,NOT APPLICABLE,
S0054,17,muscle_weakness,N,2,191,198,NOT APPLICABLE,
S0055,1,neutropenia,N,1,4,5,NOT APPLICABLE,
S0055,2,hypertriglyceridemia,N,1,20,21,NOT APPLICABLE,
S0055,3,neutrophil_count_decreased,N,2,30,31,NOT APPLICABLE,
S0055,4,dyspnea,N,2,31,32,NOT APPLICABLE,
S0055,5,nausea,N,1,44,45,NOT APPLICABLE,
S0055,6,gastrointestinal,N,2,61,62,NOT APPLICABLE,
S0055,7,anorexia,N,2,69,70,NOT APPLICABLE,
S0055,8,myalgia,N,1,78,79,NOT APPLICABLE,
S0055,9,neuropathy-motor,N,2,102,103,NOT APPLICABLE,
S0055,10,hemoglobin_normal_12_16_gm,N,1,118,119,NOT APPLICABLE,
S0055,11,muscle_weakness,N,1,122,123,NOT APPLICABLE,
S0055,12,hypocalcemia,N,2,125,126,NOT APPLICABLE,
S0055,13,platelets,Y,3,127,129,reduce_percent,DM008
S0055,14,vomiting,N,1,141,142,NOT APPLICABLE,
S0055,15,platelets,N,1,164,165,reduce_percent,DM008
S0055,16,neuropathy_-_sensory,N,1,176,183,NOT APPLICABLE,
S0056,1,sleeplessness,N,1,1,2,NOT APPLICABLE,
S0056,2,depression_dominant,N,2,3,4,NOT APPLICABLE,
S0056,3,hypoalbuminemia,N,2,6,7,NOT APPLICABLE,
S0056,4,platelets,Y,3,13,15,reduce_percent,DM008
S0056,5,myalgia,N,2,14,15,NOT APPLICABLE,
S0056,6,catheter_related_infection,N,2,18,19,NOT APPLICABLE,
S0056,7,hemoglobin_normal_12_16_gm,N,2,27,28,NOT APPLICABLE,
S0056,8,hypernatremia,N,2,29,30,NOT APPLICABLE,
S0056,9,constipation,N,2,36,37,NOT APPLICABLE,
S0056,10,sensory_neuropathy,N,2,39,40,NOT APPLICABLE,
S0056,11,leukocytes,N,1,45,46,NOT APPLICABLE,
S0056,12,dyspnea,N,2,67,68,NOT APPLICABLE,
S0056,13,hemoglobin_normal_12_16_gm,Y,3,78,80,NOT APPLICABLE,
S0056,14,fatigue,N,2,96,97,NOT APPLICABLE,
S0056,15,leukocytes_(total_wbc),N,1,115,116,NOT APPLICABLE,
S0056,16,neuropathy_-_motor,N,2,118,119,NOT APPLICABLE,
S0056,17,dry_skin,N,2,121,122,NOT APPLICABLE,
S0056,18,seizures,Y,3,123,125,NOT APPLICABLE,
S0056,19,arthralgia,N,2,131,132,NOT APPLICABLE,
S0056,20,gastrointestinal,N,2,132,133,NOT APPLICABLE,
S0056,21,hypocalcemia,N,2,139,140,NOT APPLICABLE,
S0056,22,alopecia,N,1,143,144,NOT APPLICABLE,
S0056,23,seizures,N,1,168,175,NOT APPLICABLE,
S0056,24,coughing,N,2,173,180,NOT APPLICABLE,
S0056,25,anorexia,N,2,179,186,NOT APPLICABLE,
S0056,26,neutropenia,N,1,181,188,NOT APPLICABLE,
S0056,27,platelets,N,1,188,195,NOT APPLICABLE,
S0056,28,nausea,N,2,190,197,NOT APPLICABLE,
S0056,29,dizziness,N,2,195,202,NOT APPLICABLE,
S0057,1,sweating,N,2,11,12,NOT APPLICABLE,
S0057,2,fatigue,N,1,36,37,NOT APPLICABLE,
S0057,3,catheter_related_infection,N,2,36,37,NOT APPLICABLE,
S0057,4,peripheral_motor_neuropathy,N,2,60,61,NOT APPLICABLE,
S0057,5,fever,N,2,63,64,NOT APPLICABLE,
S0057,6,neutrophils,N,2,65,66,NOT APPLICABLE,
S0057,7,vomiting,N,1,68,69,NOT APPLICABLE,
S0057,8,nausea,N,1,73,74,NOT APPLICABLE,
S0057,9,neutrophil_count_decreased,N,2,81,82,NOT APPLICABLE,
S0057,10,muscle_weakness,N,1,113,114,NOT APPLICABLE,
S0057,11,neuropathy_-_sensory,N,1,136,137,NOT APPLICABLE,
S0057,12,gastrointestinal,N,2,148,149,NOT APPLICABLE,
S0057,13,coughing,N,2,152,153,NOT APPLICABLE,
S0057,14,dizziness,N,1,159,160,NOT APPLICABLE,
S0057,15,anxiety,N,1,159,160,NOT APPLICABLE,
S0057,16,hemoglobin_normal_12_16_gm,N,1,162,163,NOT APPLICABLE,
S0057,17,arthralgia,N,1,162,163,NOT APPLICABLE,
S0057,18,platelets,Y,3,176,190,NOT APPLICABLE,
S0057,19,hypophosphatemia,N,1,181,188,NOT APPLICABLE,
S0057,20,platelets,N,1,190,197,NOT APPLICABLE,
S0058,1,hypocalcemia,N,2,1,2,NOT APPLICABLE,
S0058,2,catheter_related_infection,N,1,24,25,NOT APPLICABLE,
S0058,3,arthralgia,N,2,60,61,NOT APPLICABLE,
S0058,4,neuropathy_-_motor,N,1,64,65,NOT APPLICABLE,
S0058,5,hypoalbuminemia,N,2,81,82,NOT APPLICABLE,
S0058,6,depression_dominant,N,1,91,92,NOT APPLICABLE,
S0058,7,neutropenia,N,1,91,92,NOT APPLICABLE,
S0058,8,hypernatremia,N,2,172,179,NOT APPLICABLE,
S0058,9,myalgia,N,1,177,184,NOT APPLICABLE,
S0058,10,leukocytes,N,2,181,188,NOT APPLICABLE,
S0059,1,depression_dominant,N,1,3,4,NOT APPLICABLE,
S0059,2,seizures,N,2,4,5,NOT APPLICABLE,
S0059,3,catheter_related_infection,N,2,6,7,NOT APPLICABLE,
S0059,4,leukocytes,N,1,9,10,NOT APPLICABLE,
S0059,5,hypocalcemia,N,2,10,11,NOT APPLICABLE,
S0059,6,nausea,N,1,12,13,NOT APPLICABLE,
S0059,7,coughing,N,1,12,13,NOT APPLICABLE,
S0059,8,dizziness,N,2,13,14,NOT APPLICABLE,
S0059,9,fever,N,1,15,16,NOT APPLICABLE,
S0059,10,muscle_weakness,N,2,16,17,NOT APPLICABLE,
S0059,11,blurred_vision,N,1,17,18,NOT APPLICABLE,
S0059,12,sweating,N,2,18,19,NOT APPLICABLE,
S0059,13,sleeplessness,N,1,21,22,NOT APPLICABLE,
S0059,14,hypophosphatemia,N,1,25,26,NOT APPLICABLE,
S0059,15,myalgia,N,1,35,36,NOT APPLICABLE,
S0059,16,anorexia,N,2,42,43,NOT APPLICABLE,
S0059,17,arthralgia,N,2,43,44,NOT APPLICABLE,
S0059,18,gastrointestinal,N,2,48,49,NOT APPLICABLE,
S0059,19,neuropathy_-_motor,N,2,53,54,NOT APPLICABLE,
S0059,20,hypoalbuminemia,N,1,60,61,NOT APPLICABLE,
S0059,21,hypernatremia,N,2,61,62,NOT APPLICABLE,
S0059,22,sensory_neuropathy,N,1,61,62,NOT APPLICABLE,
S0059,23,alopecia,N,1,64,65,NOT APPLICABLE,
S0060,1,gastrointestinal,N,1,18,19,NOT APPLICABLE,
S0060,2,nausea,N,1,19,20,NOT APPLICABLE,
S0060,3,muscle_weakness,N,2,26,27,NOT APPLICABLE,
S0060,4,vomiting,N,2,34,35,NOT APPLICABLE,
S0060,5,platelets,N,1,43,44,reduce_percent,DM008
S0060,6,neutropenia,N,1,65,66,NOT APPLICABLE,
S0060,7,thrombocytopenia,N,1,67,68,reduce_percent,DM008
S0060,8,hemoglobin_normal_12_16_gm,N,1,68,69,NOT APPLICABLE,
S0060,9,myalgia,N,1,74,75,NOT APPLICABLE,
S0060,10,neuropathy-motor,N,1,76,77,NOT APPLICABLE,
S0060,11,dyspnea,N,2,77,78,NOT APPLICABLE,
S0060,12,fatigue,N,1,87,88,NOT APPLICABLE,
S0060,13,depression_dominant,N,2,103,104,NOT APPLICABLE,
S0060,14,anemia,N,2,138,139,NOT APPLICABLE,
S0060,15,neutrophil_count_decreased,N,2,142,143,NOT APPLICABLE,
S0060,16,neuropathy_-_sensory,N,1,168,175,NOT APPLICABLE,
S0060,17,arthralgia,N,2,168,175,NOT APPLICABLE,
S0060,18,sweating,N,2,176,183,NOT APPLICABLE,
S0060,19,headache,N,1,183,190,NOT APPLICABLE,
S0061,1,neuropathy_-_motor,N,2,1,2,NOT APPLICABLE,
S0061,2,depression_dominant,N,2,13,14,NOT APPLICABLE,
S0061,3,arthralgia,N,1,29,30,NOT APPLICABLE,
S0061,4,seizures,N,1,32,33,NOT APPLICABLE,
S0061,5,coughing,N,1,90,91,NOT APPLICABLE,
S0061,6,myalgia,N,1,106,107,NOT APPLICABLE,
S0061,7,catheter_related_infection,N,1,106,107,NOT APPLICABLE,
S0061,8,hypernatremia,N,2,111,112,NOT APPLICABLE,
S0061,9,hypocalcemia,N,1,136,137,NOT APPLICABLE,
S0061,10,dizziness,N,1,143,144,NOT APPLICABLE,
S0061,11,hypoalbuminemia,N,1,143,144,NOT APPLICABLE,
S0061,12,leukocytes,N,2,147,148,NOT APPLICABLE,
S0061,13,alopecia,N,2,182,189,NOT APPLICABLE,
S0062,1,catheter_related_infection,N,1,7,8,NOT APPLICABLE,
S0062,2,fatigue,N,1,9,10,NOT APPLICABLE,
S0062,3,neuropathy_-_motor,N,1,9,10,NOT APPLICABLE,
S0062,4,myalgia,N,1,15,16,NOT APPLICABLE,
S0062,5,platelets,N,1,16,17,reduce_percent,DM008
S0062,6,hypocalcemia,N,2,19,20,NOT APPLICABLE,
S0062,7,hypernatremia,N,2,27,28,NOT APPLICABLE,
S0062,8,leukocytes,N,2,27,28,NOT APPLICABLE,
S0062,9,constipation,N,1,29,30,NOT APPLICABLE,
S0062,10,alopecia,N,1,35,36,NOT APPLICABLE,
S0062,11,arthralgia,N,2,44,45,NOT APPLICABLE,
S0062,12,depression_dominant,N,1,50,51,NOT APPLICABLE,
S0062,13,seizures,N,2,62,63,NOT APPLICABLE,
S0062,14,blurred_vision,N,1,77,78,NOT APPLICABLE,
S0062,15,sensory_neuropathy,N,1,81,82,NOT APPLICABLE,
S0062,16,hypoalbuminemia,N,1,88,89,NOT APPLICABLE,
S0062,17,gastrointestinal,N,2,90,91,NOT APPLICABLE,
S0062,18,dizziness,N,2,93,94,NOT APPLICABLE,
S0062,19,coughing,N,2,93,94,NOT APPLICABLE,
S0062,20,fever,N,2,96,97,NOT APPLICABLE,
S0062,21,seizures,Y,3,102,104,NOT APPLICABLE,
S0062,22,dyspnea,N,2,119,120,NOT APPLICABLE,
S0063,1,nausea,N,2,3,4,NOT APPLICABLE,
S0063,2,neuropathy_-_sensory,N,1,5,6,NOT APPLICABLE,
S0063,3,coughing,N,1,7,8,NOT APPLICABLE,
S0063,4,hypertriglyceridemia,N,2,9,10,NOT APPLICABLE,
S0063,5,thrombocytopenia,N,2,10,11,reduce_percent,DM008
S0063,6,seizures,N,2,14,15,NOT APPLICABLE,
S0063,7,edema,N,2,15,16,NOT APPLICABLE,
S0063,8,neutrophil_count_decreased,N,2,16,17,NOT APPLICABLE,
S0063,9,gastrointestinal,N,2,18,19,NOT APPLICABLE,
S0063,10,anemia,N,2,19,20,NOT APPLICABLE,
S0063,11,hypernatremia,N,2,26,27,NOT APPLICABLE,
S0063,12,dyspnea,N,2,30,31,NOT APPLICABLE,
S0063,13,vomiting,N,2,36,37,NOT APPLICABLE,
S0063,14,platelets,N,1,46,47,NOT APPLICABLE,
S0063,15,neuropathy_-_motor,N,1,48,49,NOT APPLICABLE,
S0063,16,fatigue,N,1,49,50,NOT APPLICABLE,
S0063,17,muscle_weakness,N,1,49,50,NOT APPLICABLE,
S0064,1,hypoalbuminemia,N,1,1,2,NOT APPLICABLE,
S0064,2,depression_dominant,N,1,4,5,NOT APPLICABLE,
S0064,3,vomiting,N,2,6,7,NOT APPLICABLE,
S0064,4,gastrointestinal,N,2,12,13,NOT APPLICABLE,
S0064,5,sensory_neuropathy,N,2,16,17,NOT APPLICABLE,
S0064,6,neuropathy_-_motor,N,1,17,18,NOT APPLICABLE,
S0064,7,fever,N,2,21,22,NOT APPLICABLE,
S0064,8,anorexia,N,1,23,24,NOT APPLICABLE,
S0064,9,hemoglobin_normal_12_16_gm,N,2,29,30,NOT APPLICABLE,
S0064,10,hypocalcemia,N,1,33,34,NOT APPLICABLE,
S0064,11,fatigue,N,1,39,40,NOT APPLICABLE,
S0064,12,hypesthesia,N,2,42,43,NOT APPLICABLE,
S0064,13,arthralgia,N,2,45,46,NOT APPLICABLE,
S0064,14,alopecia,N,1,46,47,NOT APPLICABLE,
S0064,15,nausea,N,2,49,50,NOT APPLICABLE,
S0064,16,seizures,N,2,50,51,NOT APPLICABLE,
S0064,17,seizures,Y,3,60,62,NOT APPLICABLE,
S0064,18,hyperglycemia,N,2,65,66,NOT APPLICABLE,
S0064,19,constipation,N,1,67,68,NOT APPLICABLE,
S0064,20,catheter_related_infection,N,1,67,68,NOT APPLICABLE,
S0064,21,headache,N,2,77,78,NOT APPLICABLE,
S0064,22,blurred_vision,N,1,81,82,NOT APPLICABLE,
S0064,23,edema,N,2,84,85,NOT APPLICABLE,
S0064,24,myalgia,N,2,93,94,NOT APPLICABLE,
S0064,25,hypercholesterolemia,N,2,101,102,NOT APPLICABLE,
S0064,26,alanine_aminotransferase_increased,N,2,101,102,NOT APPLICABLE,
S0064,27,hypophosphatemia,N,1,103,104,NOT APPLICABLE,
S0064,28,leukocytes_(total_wbc),N,1,103,104,NOT APPLICABLE,
S0064,29,neutropenia,N,1,108,109,NOT APPLICABLE,
S0065,1,dizziness,N,2,23,24,NOT APPLICABLE,
S0065,2,anorexia,N,1,34,35,NOT APPLICABLE,
S0065,3,sleeplessness,N,1,38,39,NOT APPLICABLE,
S0065,4,coughing,N,1,38,39,NOT APPLICABLE,
S0065,5,arthralgia,N,1,49,50,NOT APPLICABLE,
S0065,6,dry_skin,N,1,58,59,NOT APPLICABLE,
S0065,7,hypoalbuminemia,N,1,62,63,NOT APPLICABLE,
S0065,8,blurred_vision,N,2,65,66,NOT APPLICABLE,
S0065,9,platelets,Y,3,68,70,reduce_percent,DM008
S0065,10,fatigue,N,2,70,71,NOT APPLICABLE,
S0065,11,seizures,Y,3,75,77,NOT APPLICABLE,
S0065,12,myalgia,N,2,91,92,NOT APPLICABLE,
S0065,13,seizures,N,2,99,100,NOT APPLICABLE,
S0065,14,leukocytes,N,1,107,108,NOT APPLICABLE,
S0065,15,catheter_related_infection,N,1,117,118,NOT APPLICABLE,
S0065,16,hypernatremia,N,2,130,131,NOT APPLICABLE,
S0065,17,sensory_neuropathy,N,2,136,137,NOT APPLICABLE,
S0065,18,muscle_weakness,N,1,142,143,NOT APPLICABLE,
S0065,19,neuropathy_-_motor,N,1,152,153,NOT APPLICABLE,
S0065,20,constipation,N,2,159,160,NOT APPLICABLE,
S0065,21,depression_dominant,N,1,170,177,NOT APPLICABLE,
S0065,22,hypocalcemia,N,2,171,178,NOT APPLICABLE,
S0065,23,anxiety,N,1,174,181,NOT APPLICABLE,
S0065,24,alopecia,N,1,178,185,NOT APPLICABLE,
S0065,25,gastrointestinal,N,2,180,187,NOT APPLICABLE,
S0066,1,depression_dominant,N,2,47,48,NOT APPLICABLE,
S0066,2,hypoalbuminemia,N,2,62,63,NOT APPLICABLE,
S0066,3,neuropathy_-_motor,N,1,74,75,NOT APPLICABLE,
S0066,4,myalgia,N,1,103,104,NOT APPLICABLE,
S0066,5,catheter_related_infection,N,1,131,132,NOT APPLICABLE,
S0066,6,alopecia,N,1,141,142,NOT APPLICABLE,
S0066,7,leukocytes,N,1,144,145,NOT APPLICABLE,
S0067,1,platelets,N,2,21,22,reduce_percent,DM008
S0067,2,gastrointestinal,N,2,22,23,NOT APPLICABLE,
S0067,3,hemoglobin_normal_12_16_gm,N,2,25,26,NOT APPLICABLE,
S0067,4,constipation,N,1,40,41,NOT APPLICABLE,
S0067,5,neutropenia,N,2,43,44,NOT APPLICABLE,
S0067,6,anxiety,N,1,45,46,NOT APPLICABLE,
S0067,7,neuropathy_-_sensory,N,2,48,49,NOT APPLICABLE,
S0067,8,thrombosis,Y,3,59,61,NOT APPLICABLE,
S0067,9,vomiting,N,2,66,67,NOT APPLICABLE,
S0067,10,hypernatremia,N,2,87,88,NOT APPLICABLE,
S0067,11,thrombocytopenia,N,2,92,93,reduce_percent,DM008
S0067,12,hypertriglyceridemia,N,2,103,104,NOT APPLICABLE,
S0067,13,dizziness,N,1,119,120,NOT APPLICABLE,
S0067,14,allergic_rhinitis_disorder,N,2,126,127,NOT APPLICABLE,
S0067,15,neutrophil_count_decreased,N,1,129,130,NOT APPLICABLE,
S0067,16,muscle_weakness,N,2,140,141,NOT APPLICABLE,
S0067,17,nausea,N,1,145,146,NOT APPLICABLE,
S0067,18,myalgia,N,2,156,157,NOT APPLICABLE,
S0067,19,anemia,N,2,174,181,NOT APPLICABLE,
S0067,20,hyponatremia,N,2,182,189,NOT APPLICABLE,
S0068,1,neutrophil_count_decreased,N,1,1,2,NOT APPLICABLE,
S0068,2,nausea,N,2,2,3,NOT APPLICABLE,
S0068,3,anorexia,N,1,2,3,NOT APPLICABLE,
S0068,4,sleeplessness,N,2,6,7,NOT APPLICABLE,
S0068,5,neuropathy_-_sensory,N,1,11,12,NOT APPLICABLE,
S0068,6,neutropenia,N,2,16,17,NOT APPLICABLE,
S0068,7,fatigue,N,1,25,26,NOT APPLICABLE,
S0068,8,vomiting,N,1,30,31,NOT APPLICABLE,
S0068,9,neuropathy_-_motor,N,2,33,34,NOT APPLICABLE,
S0068,10,myalgia,N,2,42,43,NOT APPLICABLE,
S0068,11,hemoglobin_normal_12_16_gm,N,2,55,56,NOT APPLICABLE,
S0068,12,anxiety,N,2,62,63,NOT APPLICABLE,
S0068,13,platelets,N,1,66,67,NOT APPLICABLE,
S0068,14,catheter_related_infection,N,2,68,69,NOT APPLICABLE,
S0068,15,depression_dominant,N,2,70,71,NOT APPLICABLE,
S0069,1,hypocalcemia,N,2,5,6,NOT APPLICABLE,
S0069,2,fatigue,N,1,11,12,NOT APPLICABLE,
S0069,3,hypernatremia,N,2,11,12,NOT APPLICABLE,
S0069,4,alanine_aminotransferase_increased,N,2,14,15,NOT APPLICABLE,
S0069,5,platelets,N,2,15,16,NOT APPLICABLE,
S0069,6,alopecia,N,1,18,19,NOT APPLICABLE,
S0069,7,myalgia,N,2,18,19,NOT APPLICABLE,
S0069,8,dyspnea,N,1,22,23,NOT APPLICABLE,
S0069,9,sweating,N,1,23,24,NOT APPLICABLE,
S0069,10,muscle_weakness,N,2,24,25,NOT APPLICABLE,
S0069,11,arthralgia,N,2,27,28,NOT APPLICABLE,
S0069,12,nausea,N,1,31,32,NOT APPLICABLE,
S0069,13,stomatitis,N,1,32,33,NOT APPLICABLE,
S0069,14,neuropathy_-_sensory,N,1,33,34,NOT APPLICABLE,
S0069,15,neutropenia,N,1,33,34,NOT APPLICABLE,
S0069,16,hemoglobin_normal_12_16_gm,N,2,36,37,NOT APPLICABLE,
S0069,17,hyperkalemia,N,2,38,39,NOT APPLICABLE,
S0069,18,upper_respiratory_infections,N,1,38,39,NOT APPLICABLE,
S0070,1,hypernatremia,N,1,28,29,NOT APPLICABLE,
S0070,2,platelets,N,1,55,56,reduce_percent,DM008
S0070,3,myalgia,N,1,68,69,NOT APPLICABLE,
S0070,4,upper_respiratory_infections,N,2,71,72,NOT APPLICABLE,
S0070,5,fatigue,N,2,73,74,NOT APPLICABLE,
S0070,6,neutrophil_count_decreased,N,2,91,92,NOT APPLICABLE,
S0070,7,dyspnea,N,2,93,94,NOT APPLICABLE,
S0070,8,catheter_related_infection,N,1,103,104,NOT APPLICABLE,
S0070,9,nausea,N,1,112,113,NOT APPLICABLE,
S0070,10,anxiety,N,2,120,121,NOT APPLICABLE,
S0070,11,hemoglobin_normal_12_16_gm,N,1,126,127,NOT APPLICABLE,
S0070,12,neuropathy_-_sensory,N,1,140,141,NOT APPLICABLE,
S0070,13,hydrocephalus,Y,3,161,163,NOT APPLICABLE,
S0070,14,vomiting,N,2,181,188,NOT APPLICABLE,
S0070,15,muscle_weakness,N,1,192,199,NOT APPLICABLE,
S0070,16,neutropenia,N,2,195,202,NOT APPLICABLE,
S0070,17,alopecia,N,2,198,205,NOT APPLICABLE,
S0071,1,hypernatremia,N,2,5,6,NOT APPLICABLE,
S0071,2,gastrointestinal,N,1,6,7,NOT APPLICABLE,
S0071,3,fever,N,1,12,13,NOT APPLICABLE,
S0071,4,neutrophils,Y,3,15,17,NOT APPLICABLE,
S0071,5,seizures,N,1,19,20,NOT APPLICABLE,
S0071,6,neuropathy_-_motor,N,1,20,21,NOT APPLICABLE,
S0071,7,alanine_aminotransferase_increased,N,2,22,23,NOT APPLICABLE,
S0071,8,alopecia,N,2,24,25,NOT APPLICABLE,
S0071,9,platelets,N,1,28,29,reduce_percent,DM008
S0071,10,nausea,N,1,28,29,NOT APPLICABLE,
S0071,11,sweating,N,2,28,29,NOT APPLICABLE,
S0071,12,hypophosphatemia,N,1,32,33,NOT APPLICABLE,
S0071,13,depression_dominant,N,2,35,36,NOT APPLICABLE,
S0071,14,hypocalcemia,N,2,45,46,NOT APPLICABLE,
S0071,15,coughing,N,1,47,48,NOT APPLICABLE,
S0071,16,myalgia,N,1,52,53,NOT APPLICABLE,
S0071,17,anemia,N,2,52,53,NOT APPLICABLE,
S0071,18,catheter_related_infection,N,2,53,54,NOT APPLICABLE,
S0071,19,sensory_neuropathy,N,2,58,59,NOT APPLICABLE,
S0071,20,constipation,N,1,62,63,NOT APPLICABLE,
S0071,21,dyspnea,N,1,62,63,NOT APPLICABLE,
S0071,22,sleeplessness,N,1,63,64,NOT APPLICABLE,
S0071,23,dizziness,N,2,65,66,NOT APPLICABLE,
S0071,24,hemoglobin_normal_12_16_gm,N,2,68,69,NOT APPLICABLE,
S0071,25,arthralgia,N,2,69,70,NOT APPLICABLE,
S0071,26,hypokalemia,N,2,70,71,NOT APPLICABLE,
S0071,27,hypoalbuminemia,N,2,73,74,NOT APPLICABLE,
S0071,28,leukocytes,N,1,74,75,NOT APPLICABLE,
S0071,29,fatigue,N,2,78,79,NOT APPLICABLE,
S0071,30,dry_skin,N,1,80,81,NOT APPLICABLE,
S0072,1,nausea,N,1,20,21,NOT APPLICABLE,
S0072,2,hypernatremia,N,1,26,27,NOT APPLICABLE,
S0072,3,neuropathy_-_sensory,N,1,46,47,NOT APPLICABLE,
S0072,4,anemia,N,1,53,54,NOT APPLICABLE,
S0072,5,allergic_rhinitis_disorder,N,2,79,80,NOT APPLICABLE,
S0072,6,neutropenia,N,2,87,88,NOT APPLICABLE,
S0072,7,muscle_weakness,N,2,97,98,NOT APPLICABLE,
S0072,8,catheter_related_infection,N,1,107,108,NOT APPLICABLE,
S0072,9,hemoglobin_normal_12_16_gm,N,2,130,131,NOT APPLICABLE,
S0072,10,myalgia,N,1,139,140,NOT APPLICABLE,
S0072,11,platelets,N,1,145,146,reduce_percent,DM008
S0072,12,fatigue,N,2,175,182,NOT APPLICABLE,
S0072,13,alanine_aminotransferase_increased,N,1,177,184,NOT APPLICABLE,
S0072,14,neutrophil_count_decreased,N,2,178,185,NOT APPLICABLE,
S0073,1,vomiting,N,1,6,7,NOT APPLICABLE,
S0073,2,depression_dominant,N,1,6,7,NOT APPLICABLE,
S0073,3,peripheral_motor_neuropathy,N,2,16,17,NOT APPLICABLE,
S0073,4,hypophosphatemia,N,1,19,20,NOT APPLICABLE,
S0073,5,muscle_weakness,N,1,28,29,NOT APPLICABLE,
S0073,6,fever,N,1,31,32,NOT APPLICABLE,
S0073,7,headache,N,1,37,38,NOT APPLICABLE,
S0073,8,gastrointestinal,N,2,37,38,NOT APPLICABLE,
S0073,9,platelets,N,1,42,43,reduce_percent,DM008
S0073,10,anemia,N,1,42,43,NOT APPLICABLE,
S0073,11,anorexia,N,2,52,53,NOT APPLICABLE,
S0073,12,blurred_vision,N,2,59,60,NOT APPLICABLE,
S0073,13,coughing,N,1,60,61,NOT APPLICABLE,
S0073,14,hemoglobin_normal_12_16_gm,N,2,64,65,NOT APPLICABLE,
S0073,15,thrombocytopenia,N,1,64,65,reduce_percent,DM008
S0073,16,dyspnea,N,2,72,73,NOT APPLICABLE,
S0073,17,hypernatremia,N,2,72,73,NOT APPLICABLE,
S0073,18,myalgia,N,2,82,83,NOT APPLICABLE,
S0073,19,neuropathy_-_sensory,N,2,92,93,NOT APPLICABLE,
S0074,1,neuropathy_-_motor,N,1,4,5,NOT APPLICABLE,
S0074,2,catheter_related_infection,N,2,12,13,NOT APPLICABLE,
S0074,3,nausea,N,2,23,24,NOT APPLICABLE,
S0074,4,gastrointestinal,N,2,23,24,NOT APPLICABLE,
S0074,5,anemia,N,2,29,30,NOT APPLICABLE,
S0074,6,alanine_aminotransferase_increased,N,2,29,30,NOT APPLICABLE,
S0074,7,sensory_neuropathy,N,2,29,30,NOT APPLICABLE,
S0074,8,constipation,N,1,30,31,NOT APPLICABLE,
S0074,9,arthralgia,N,2,30,31,NOT APPLICABLE,
S0074,10,hypercholesterolemia,N,1,35,36,NOT APPLICABLE,
S0074,11,hypocalcemia,N,1,35,36,NOT APPLICABLE,
S0074,12,depression_dominant,N,1,36,37,NOT APPLICABLE,
S0074,13,leukocytes,N,1,37,38,NOT APPLICABLE,
S0074,14,sleeplessness,N,1,38,39,NOT APPLICABLE,
S0074,15,coughing,N,1,38,39,NOT APPLICABLE,
S0074,16,hypoalbuminemia,N,1,40,41,NOT APPLICABLE,
S0074,17,hypophosphatemia,N,1,41,42,NOT APPLICABLE,
S0074,18,alopecia,N,2,49,50,NOT APPLICABLE,
S0074,19,hypernatremia,N,2,49,50,NOT APPLICABLE,
S0074,20,hemoglobin_normal_12_16_gm,N,1,60,61,NOT APPLICABLE,
S0074,21,seizures,N,2,66,67,NOT APPLICABLE,
S0074,22,myalgia,N,1,70,71,NOT APPLICABLE,
S0074,23,anorexia,N,1,70,71,NOT APPLICABLE,
S0074,24,blurred_vision,N,1,92,93,NOT APPLICABLE,
S0074,25,dyspnea,N,1,93,94,NOT APPLICABLE,
S0074,26,platelets,N,1,100,101,NOT APPLICABLE,
S0075,1,neuropathy_-_motor,N,2,9,10,NOT APPLICABLE,
S0075,2,dry_skin,N,2,10,11,NOT APPLICABLE,
S0075,3,seizures,Y,3,12,14,NOT APPLICABLE,
S0075,4,sleeplessness,N,1,20,21,NOT APPLICABLE,
S0075,5,gastrointestinal,N,2,23,24,NOT APPLICABLE,
S0075,6,sensory_neuropathy,N,1,34,35,NOT APPLICABLE,
S0075,7,alopecia,N,1,47,48,NOT APPLICABLE,
S0075,8,nausea,N,1,59,60,NOT APPLICABLE,
S0075,9,hemoglobin_normal_12_16_gm,Y,3,61,63,NOT APPLICABLE,
S0075,10,dizziness,N,2,62,63,NOT APPLICABLE,
S0075,11,hypocalcemia,N,1,67,68,NOT APPLICABLE,
S0075,12,blurred_vision,N,1,70,71,NOT APPLICABLE,
S0075,13,anorexia,N,1,71,72,NOT APPLICABLE,
S0075,14,constipation,N,1,73,74,NOT APPLICABLE,
S0075,15,hypesthesia,N,1,78,79,NOT APPLICABLE,
S0075,16,sweating,N,1,92,93,NOT APPLICABLE,
S0075,17,diarrhea,N,1,93,94,NOT APPLICABLE,
S0075,18,dyspnea,N,1,95,96,NOT APPLICABLE,
S0075,19,headache,N,2,104,105,NOT APPLICABLE,
S0075,20,hypernatremia,N,1,104,105,NOT APPLICABLE,
S0075,21,coughing,N,2,109,110,NOT APPLICABLE,
S0075,22,hyperglycemia,N,1,112,113,NOT APPLICABLE,
S0075,23,platelets,N,1,122,123,reduce_percent,DM008
S0075,24,anxiety,N,1,129,130,NOT APPLICABLE,
S0075,25,anemia,N,1,132,133,NOT APPLICABLE,
S0075,26,neutrophils,Y,3,141,143,NOT APPLICABLE,
S0075,27,arthralgia,N,1,146,147,NOT APPLICABLE,
S0075,28,fever,N,2,146,147,NOT APPLICABLE,
S0075,29,myalgia,N,1,150,151,NOT APPLICABLE,
S0075,30,seizures,N,1,152,153,NOT APPLICABLE,
S0075,31,hyponatremia,N,1,161,162,NOT APPLICABLE,
S0075,32,vomiting,N,1,162,163,NOT APPLICABLE,
S0075,33,hypophosphatemia,N,2,163,164,NOT APPLICABLE,
S0075,34,stomatitis,N,1,166,167,NOT APPLICABLE,
S0075,35,depression_dominant,N,2,174,181,NOT APPLICABLE,
S0075,36,fatigue,N,2,175,182,NOT APPLICABLE,
S0075,37,leukocytes,N,2,177,184,NOT APPLICABLE,
S0075,38,hypoalbuminemia,N,1,179,186,NOT APPLICABLE,
S0075,39,catheter_related_infection,N,2,183,190,NOT APPLICABLE,
S0075,40,muscle_weakness,N,2,184,191,NOT APPLICABLE,
S0075,41,neutropenia,N,1,186,193,NOT APPLICABLE,
S0075,42,hemoglobin_normal_12_16_gm,N,1,197,204,NOT APPLICABLE,
S0076,1,dizziness,N,1,3,4,NOT APPLICABLE,
S0076,2,neutropenia,N,1,9,10,NOT APPLICABLE,
S0076,3,myalgia,N,1,11,12,NOT APPLICABLE,
S0076,4,nausea,N,2,23,24,NOT APPLICABLE,
S0076,5,platelets,N,2,28,29,reduce_percent,DM008
S0076,6,sleeplessness,N,1,29,30,NOT APPLICABLE,
S0076,7,dyspnea,N,2,31,32,NOT APPLICABLE,
S0076,8,anemia,N,2,47,48,NOT APPLICABLE,
S0076,9,hemoglobin_normal_12_16_gm,N,1,51,52,NOT APPLICABLE,
S0076,10,neuropathy-motor,N,2,86,87,NOT APPLICABLE,
S0076,11,neutrophil_count_decreased,N,1,88,89,NOT APPLICABLE,
S0076,12,fatigue,N,2,98,99,NOT APPLICABLE,
S0076,13,neuropathy_-_sensory,N,1,123,124,NOT APPLICABLE,
S0076,14,anxiety,N,2,132,133,NOT APPLICABLE,
S0076,15,thrombosis/thrombus/embolism,Y,3,133,135,NOT APPLICABLE,
S0076,16,headache,N,2,147,148,NOT APPLICABLE,
S0076,17,muscle_weakness,N,2,158,159,NOT APPLICABLE,
S0077,1,hypoalbuminemia,N,2,6,7,NOT APPLICABLE,
S0077,2,neuropathy_-_motor,N,2,7,8,NOT APPLICABLE,
S0077,3,leukocytes,N,2,19,20,NOT APPLICABLE,
S0077,4,coughing,N,1,23,24,NOT APPLICABLE,
S0077,5,hypernatremia,N,1,45,46,NOT APPLICABLE,
S0077,6,hypocalcemia,N,2,64,65,NOT APPLICABLE,
S0077,7,seizures,N,1,82,83,NOT APPLICABLE,
S0077,8,catheter_related_infection,N,2,111,112,NOT APPLICABLE,
S0077,9,depression_dominant,N,2,134,135,NOT APPLICABLE,
S0077,10,myalgia,N,2,136,137,NOT APPLICABLE,
S0078,1,constipation,N,1,18,19,NOT APPLICABLE,
S0078,2,anorexia,N,2,22,23,NOT APPLICABLE,
S0078,3,platelets,N,2,30,31,reduce_percent,DM008
S0078,4,hemoglobin_normal_12_16_gm,N,2,38,39,NOT APPLICABLE,
S0078,5,muscle_weakness,N,2,41,42,NOT APPLICABLE,
S0078,6,hypocalcemia,N,2,46,47,NOT APPLICABLE,
S0078,7,hyperkalemia,N,1,66,67,NOT APPLICABLE,
S0078,8,neuropathy_-_sensory,N,1,77,78,NOT APPLICABLE,
S0078,9,fatigue,N,2,77,78,NOT APPLICABLE,
S0078,10,neutrophil_count_decreased,N,2,83,84,NOT APPLICABLE,
S0078,11,dyspnea,N,2,96,97,NOT APPLICABLE,
S0078,12,hypokalemia,N,2,102,103,NOT APPLICABLE,
S0078,13,neutropenia,N,1,127,128,NOT APPLICABLE,
S0078,14,vomiting,N,1,132,133,NOT APPLICABLE,
S0078,15,headache,N,1,171,178,NOT APPLICABLE,
S0078,16,dry_skin,N,2,173,180,NOT APPLICABLE,
S0078,17,nausea,N,1,175,182,NOT APPLICABLE,
S0078,18,arthralgia,N,2,187,194,NOT APPLICABLE,
S0079,1,hypophosphatemia,N,2,1,2,NOT APPLICABLE,
S0079,2,hypocalcemia,N,2,5,6,NOT APPLICABLE,
S0079,3,gastrointestinal,N,2,38,39,NOT APPLICABLE,
S0079,4,anorexia,N,1,46,47,NOT APPLICABLE,
S0079,5,alopecia,N,1,52,53,NOT APPLICABLE,
S0079,6,myalgia,N,2,57,58,NOT APPLICABLE,
S0079,7,hypernatremia,N,2,61,62,NOT APPLICABLE,
S0079,8,hypoalbuminemia,N,2,66,67,NOT APPLICABLE,
S0079,9,platelets,N,1,87,88,reduce_percent,DM008
S0079,10,coughing,N,1,95,96,NOT APPLICABLE,
S0079,11,fatigue,N,2,104,105,NOT APPLICABLE,
S0079,12,neuropathy_-_motor,N,1,105,106,NOT APPLICABLE,
S0079,13,sleeplessness,N,1,114,115,NOT APPLICABLE,
S0079,14,seizures,N,2,131,132,NOT APPLICABLE,
S0079,15,catheter_related_infection,N,2,156,157,NOT APPLICABLE,
S0079,16,arthralgia,N,1,161,162,NOT APPLICABLE,
S0079,17,blurred_vision,N,2,168,175,NOT APPLICABLE,
S0079,18,depression_dominant,N,1,185,192,NOT APPLICABLE,
S0079,19,leukocytes,N,2,195,202,NOT APPLICABLE,
S0080,1,depression_dominant,N,2,11,12,NOT APPLICABLE,
S0080,2,gastrointestinal,N,1,12,13,NOT APPLICABLE,
S0080,3,anemia,N,1,14,15,NOT APPLICABLE,
S0080,4,alopecia,N,1,27,28,NOT APPLICABLE,
S0080,5,hemoglobin_normal_12_16_gm,N,2,34,35,NOT APPLICABLE,
S0080,6,fatigue,N,2,43,44,NOT APPLICABLE,
S0080,7,decreased_platelet_count,N,2,66,67,reduce_percent,DM008
S0080,8,diarrhea,N,2,69,70,NOT APPLICABLE,
S0080,9,dyspnea,N,1,77,78,NOT APPLICABLE,
S0080,10,catheter_related_infection,N,2,78,79,NOT APPLICABLE,
S0080,11,hypophosphatemia,N,1,78,79,NOT APPLICABLE,
S0080,12,hypokalemia,Y,3,85,87,NOT APPLICABLE,
S0080,13,seizures,Y,3,87,89,NOT APPLICABLE,
S0080,14,neuropathy_-_motor,N,2,90,91,NOT APPLICABLE,
S0080,15,constipation,N,2,91,92,NOT APPLICABLE,
S0080,16,coughing,N,1,100,101,NOT APPLICABLE,
S0080,17,sweating,N,2,102,103,NOT APPLICABLE,
S0080,18,seizures,N,1,103,104,NOT APPLICABLE,
S0080,19,neutrophils,Y,3,103,105,NOT APPLICABLE,
S0080,20,platelets,N,1,108,109,reduce_percent,DM008
S0080,21,myalgia,N,2,112,113,NOT APPLICABLE,
S0080,22,leukocytes,N,2,112,113,NOT APPLICABLE,
S0080,23,hypoalbuminemia,N,1,115,116,NOT APPLICABLE,
S0080,24,hypocalcemia,N,2,117,118,NOT APPLICABLE,
S0080,25,alanine_aminotransferase_increased,N,1,130,131,NOT APPLICABLE,
S0080,26,hypernatremia,N,1,132,133,NOT APPLICABLE,
S0080,27,hypesthesia,N,2,136,137,NOT APPLICABLE,
S0080,28,dizziness,N,1,141,142,NOT APPLICABLE,
S0080,29,blurred_vision,N,2,143,144,NOT APPLICABLE,
S0080,30,sensory_neuropathy,N,2,144,145,NOT APPLICABLE,
S0080,31,dry_skin,N,2,146,147,NOT APPLICABLE,
S0080,32,platelets,Y,3,147,149,reduce_percent,DM008
S0080,33,weight_loss,N,1,177,184,NOT APPLICABLE,
S0080,34,arthralgia,N,2,182,189,NOT APPLICABLE,
S0080,35,nausea,N,2,184,191,NOT APPLICABLE,
S0080,36,sleeplessness,N,1,187,194,NOT APPLICABLE,
S0080,37,anorexia,N,1,188,195,NOT APPLICABLE,
S0081,1,thrombosis/thrombus/embolism,Y,3,2,4,NOT APPLICABLE,
S0081,2,neuropathy_-_sensory,N,1,10,11,NOT APPLICABLE,
S0081,3,hyperkalemia,N,1,12,13,NOT APPLICABLE,
S0081,4,upper_respiratory_infections,N,1,27,28,NOT APPLICABLE,
S0081,5,hypocalcemia,N,1,29,30,NOT APPLICABLE,
S0081,6,constipation,N,1,53,54,NOT APPLICABLE,
S0081,7,muscle_weakness,N,2,55,56,NOT APPLICABLE,
S0081,8,alopecia,N,1,72,73,NOT APPLICABLE,
S0081,9,hypertriglyceridemia,N,2,80,81,NOT APPLICABLE,
S0081,10,catheter_related_infection,N,2,103,104,NOT APPLICABLE,
S0081,11,hypernatremia,N,2,110,111,NOT APPLICABLE,
S0081,12,vomiting,N,2,143,144,NOT APPLICABLE,
S0081,13,dyspnea,N,1,145,146,NOT APPLICABLE,
S0081,14,hemoglobin_normal_12_16_gm,N,2,164,165,NOT APPLICABLE,
S0081,15,fatigue,N,2,172,179,NOT APPLICABLE,
S0081,16,coughing,N,1,181,188,NOT APPLICABLE,
S0081,17,platelets,N,1,191,198,NOT APPLICABLE,
S0082,1,neutropenia,N,1,1,2,NOT APPLICABLE,
S0082,2,vomiting,N,1,34,35,NOT APPLICABLE,
S0082,3,sweating,N,1,39,40,NOT APPLICABLE,
S0082,4,rhinitis,N,1,40,41,NOT APPLICABLE,
S0082,5,dyspnea,N,1,81,82,NOT APPLICABLE,
S0082,6,arthralgia,N,2,85,86,NOT APPLICABLE,
S0082,7,fever,N,2,88,89,NOT APPLICABLE,
S0082,8,anxiety,N,2,90,91,NOT APPLICABLE,
S0082,9,nausea,N,2,95,96,NOT APPLICABLE,
S0082,10,decreased_platelet_count,N,2,97,98,reduce_percent,DM008
S0082,11,fatigue,N,2,142,143,NOT APPLICABLE,
S0082,12,muscle_weakness,N,1,142,143,NOT APPLICABLE,
S0082,13,neutrophil_count_decreased,N,2,153,154,NOT APPLICABLE,
S0082,14,neuropathy_-_sensory,N,1,174,181,NOT APPLICABLE,
S0082,15,hemoglobin_normal_12_16_gm,N,1,181,188,NOT APPLICABLE,
S0082,16,platelets,N,1,182,189,NOT APPLICABLE,
S0082,17,hypernatremia,N,2,188,195,NOT APPLICABLE,
S0083,1,hypercholesterolemia,N,1,4,5,NOT APPLICABLE,
S0083,2,nausea,N,1,13,14,NOT APPLICABLE,
S0083,3,dizziness,N,1,29,30,NOT APPLICABLE,
S0083,4,hemoglobin_normal_12_16_gm,N,1,44,45,NOT APPLICABLE,
S0083,5,muscle_weakness,N,1,49,50,NOT APPLICABLE,
S0083,6,dyspnea,N,1,53,54,NOT APPLICABLE,
S0083,7,gastrointestinal,N,2,55,56,NOT APPLICABLE,
S0083,8,neuropathy_-_sensory,N,2,56,57,NOT APPLICABLE,
S0083,9,platelets,N,2,65,66,reduce_percent,DM008
S0083,10,fatigue,N,2,78,79,NOT APPLICABLE,
S0083,11,hyponatremia,N,1,96,97,NOT APPLICABLE,
S0083,12,arthralgia,N,1,106,107,NOT APPLICABLE,
S0083,13,vomiting,N,1,126,127,NOT APPLICABLE,
S0083,14,hypertriglyceridemia,N,2,141,142,NOT APPLICABLE,
S0083,15,decreased_platelet_count,N,2,179,186,NOT APPLICABLE,
S0083,16,anxiety,N,2,195,202,NOT APPLICABLE,
S0084,1,dizziness,N,1,12,13,NOT APPLICABLE,
S0084,2,platelets,Y,3,23,25,reduce_percent,DM008
S0084,3,muscle_weakness,N,1,28,29,NOT APPLICABLE,
S0084,4,platelets,N,2,30,31,reduce_percent,DM008
S0084,5,hemoglobin_normal_12_16_gm,N,2,43,44,NOT APPLICABLE,
S0084,6,neutrophil_count_decreased,N,1,63,64,NOT APPLICABLE,
S0084,7,fatigue,N,1,70,71,NOT APPLICABLE,
S0084,8,catheter_related_infection,N,1,110,111,NOT APPLICABLE,
S0084,9,neuropathy_-_sensory,N,1,120,121,NOT APPLICABLE,
S0084,10,nausea,N,1,124,125,NOT APPLICABLE,
S0084,11,sweating,N,2,151,152,NOT APPLICABLE,
S0084,12,dyspnea,N,2,154,155,NOT APPLICABLE,
S0084,13,neutropenia,N,1,158,159,NOT APPLICABLE,
S0084,14,thrombocytopenia,N,1,177,184,NOT APPLICABLE,
S0084,15,hyperkalemia,N,1,180,187,NOT APPLICABLE,
S0085,1,arthralgia,N,1,6,7,NOT APPLICABLE,
S0085,2,leukocytes,N,2,15,16,NOT APPLICABLE,
S0085,3,depression_dominant,N,2,16,17,NOT APPLICABLE,
S0085,4,hypernatremia,N,1,26,27,NOT APPLICABLE,
S0085,5,neuropathy_-_motor,N,1,85,86,NOT APPLICABLE,
S0085,6,hypoalbuminemia,N,1,92,93,NOT APPLICABLE,
S0085,7,seizures,N,2,102,103,NOT APPLICABLE,
S0085,8,myalgia,N,1,124,125,NOT APPLICABLE,
S0086,1,white_blood_cell_count_decreased,Y,3,2,4,NOT APPLICABLE,
S0086,2,sensory_neuropathy,N,1,8,9,NOT APPLICABLE,
S0086,3,stomatitis,N,2,10,11,NOT APPLICABLE,
S0086,4,alopecia,N,1,15,16,NOT APPLICABLE,
S0086,5,hypertriglyceridemia,N,1,15,16,NOT APPLICABLE,
S0086,6,gastrointestinal,N,2,24,25,NOT APPLICABLE,
S0086,7,seizures,N,2,25,26,NOT APPLICABLE,
S0086,8,neuropathy_-_motor,N,1,26,27,NOT APPLICABLE,
S0086,9,hypoalbuminemia,N,2,28,29,NOT APPLICABLE,
S0086,10,diarrhea,N,2,29,30,NOT APPLICABLE,
S0086,11,coughing,N,1,41,42,NOT APPLICABLE,
S0086,12,rash_erythematous_macules_or_papules,N,2,44,45,NOT APPLICABLE,
S0086,13,arthralgia,N,1,52,53,NOT APPLICABLE,
S0086,14,constipation,N,1,60,61,NOT APPLICABLE,
S0086,15,hypesthesia,N,2,63,64,NOT APPLICABLE,
S0086,16,hemoglobin_normal_12_16_gm,N,1,64,65,NOT APPLICABLE,
S0086,17,leukocytes_(total_wbc),N,2,64,65,NOT APPLICABLE,
S0086,18,hyponatremia,N,1,65,66,NOT APPLICABLE,
S0086,19,hyperuricemia,N,1,68,69,NOT APPLICABLE,
S0086,20,fatigue,N,2,78,79,NOT APPLICABLE,
S0086,21,platelets,N,1,80,81,reduce_percent,DM008
S0086,22,myalgia,N,1,89,90,NOT APPLICABLE,
S0086,23,hypophosphatemia,N,2,90,91,NOT APPLICABLE,
S0086,24,neutropenia,N,1,95,96,NOT APPLICABLE,
S0086,25,dry_skin,N,1,95,96,NOT APPLICABLE,
S0086,26,hemoglobin_normal_12_16_gm,Y,3,95,97,NOT APPLICABLE,
S0086,27,pain_other,N,1,99,100,NOT APPLICABLE,
S0086,28,hyperglycemia,N,1,103,104,NOT APPLICABLE,
S0086,29,hypercholesterolemia,N,2,104,105,NOT APPLICABLE,
S0086,30,peripheral_motor_neuropathy,N,1,109,110,NOT APPLICABLE,
S0086,31,hypernatremia,N,1,114,115,NOT APPLICABLE,
S0086,32,sweating,N,2,118,119,NOT APPLICABLE,
S0086,33,seizures,Y,3,119,121,NOT APPLICABLE,
S0086,34,headache,N,2,120,121,NOT APPLICABLE,
S0086,35,depression_dominant,N,2,121,122,NOT APPLICABLE,
S0086,36,neutrophil_count_decreased,N,2,126,127,NOT APPLICABLE,
S0086,37,sleeplessness,N,1,129,130,NOT APPLICABLE,
S0086,38,leukocytes,N,1,129,130,NOT APPLICABLE,
S0086,39,anxiety,N,2,135,136,NOT APPLICABLE,
S0086,40,fever,N,1,140,141,NOT APPLICABLE,
S0086,41,dizziness,N,1,146,147,NOT APPLICABLE,
S0086,42,decreased_platelet_count,N,1,146,147,reduce_percent,DM008
S0086,43,vomiting,N,1,147,148,NOT APPLICABLE,
S0086,44,hypocalcemia,N,2,150,151,NOT APPLICABLE,
S0086,45,catheter_related_infection,N,1,151,152,NOT APPLICABLE,
S0086,46,edema,N,2,157,158,NOT APPLICABLE,
S0086,47,anorexia,N,2,170,177,NOT APPLICABLE,
S0086,48,dyspnea,N,2,175,182,NOT APPLICABLE,
S0086,49,anemia,N,2,179,186,NOT APPLICABLE,
S0086,50,platelets,Y,3,180,194,NOT APPLICABLE,
S0086,51,blurred_vision,N,2,181,188,NOT APPLICABLE,
S0086,52,neutrophils,Y,3,184,198,NOT APPLICABLE,
S0086,53,muscle_weakness,N,2,190,197,NOT APPLICABLE,
S0086,54,nausea,N,2,192,199,NOT APPLICABLE,
S0086,55,alanine_aminotransferase_increased,N,1,197,204,NOT APPLICABLE,
S0086,56,hypokalemia,N,1,198,205,NOT APPLICABLE,
S0087,1,hemoglobin_normal_12_16_gm,N,1,10,11,NOT APPLICABLE,
S0087,2,neuropathy_-_sensory,N,2,16,17,NOT APPLICABLE,
S0087,3,upper_respiratory_infections,N,1,21,22,NOT APPLICABLE,
S0087,4,platelets,N,2,25,26,reduce_percent,DM008
S0087,5,dyspnea,N,2,35,36,NOT APPLICABLE,
S0087,6,vomiting,N,2,53,54,NOT APPLICABLE,
S0087,7,neutropenia,N,1,54,55,NOT APPLICABLE,
S0087,8,depression_dominant,N,2,87,88,NOT APPLICABLE,
S0087,9,nausea,N,2,88,89,NOT APPLICABLE,
S0087,10,neutrophil_count_decreased,N,2,113,114,NOT APPLICABLE,
S0087,11,fatigue,N,2,123,124,NOT APPLICABLE,
S0087,12,muscle_weakness,N,2,126,127,NOT APPLICABLE,
S0087,13,arthralgia,N,1,132,133,NOT APPLICABLE,
S0087,14,thrombocytopenia,N,2,144,145,reduce_percent,DM008
S0087,15,sweating,N,2,152,153,NOT APPLICABLE,
S0087,16,stomatitis,N,1,157,158,NOT APPLICABLE,
S0087,17,neuropathy_-_motor,N,1,172,179,NOT APPLICABLE,
S0088,1,hemoglobin_normal_12_16_gm,N,1,1,2,NOT APPLICABLE,
S0088,2,platelets,N,1,17,18,reduce_percent,DM008
S0088,3,alopecia,N,1,24,25,NOT APPLICABLE,
S0088,4,neuropathy_-_sensory,N,1,30,31,NOT APPLICABLE,
S0088,5,neutropenia,N,1,41,42,NOT APPLICABLE,
S0088,6,sweating,N,1,56,57,NOT APPLICABLE,
S0088,7,dizziness,N,1,57,58,NOT APPLICABLE,
S0088,8,vomiting,N,2,58,59,NOT APPLICABLE,
S0088,9,gastrointestinal,N,1,61,62,NOT APPLICABLE,
S0088,10,catheter_related_infection,N,2,63,64,NOT APPLICABLE,
S0088,11,arthralgia,N,1,78,79,NOT APPLICABLE,
S0088,12,nausea,N,1,93,94,NOT APPLICABLE,
S0088,13,anemia,N,2,103,104,NOT APPLICABLE,
S0088,14,fatigue,N,2,156,157,NOT APPLICABLE,
S0088,15,hypernatremia,N,1,157,158,NOT APPLICABLE,
S0088,16,muscle_weakness,N,2,161,162,NOT APPLICABLE,
S0088,17,hypertriglyceridemia,N,1,165,166,NOT APPLICABLE,
S0089,1,fatigue,N,1,12,13,NOT APPLICABLE,
S0089,2,muscle_weakness,N,2,12,13,NOT APPLICABLE,
S0089,3,neuropathy-motor,N,1,19,20,NOT APPLICABLE,
S0089,4,neutrophils,N,1,24,25,NOT APPLICABLE,
S0089,5,alopecia,N,1,29,30,NOT APPLICABLE,
S0089,6,constipation,N,1,39,40,NOT APPLICABLE,
S0089,7,neuropathy_-_sensory,N,1,42,43,NOT APPLICABLE,
S0089,8,neutrophil_count_decreased,N,2,48,49,NOT APPLICABLE,
S0089,9,thrombocytopenia,N,2,50,51,reduce_percent,DM008
S0089,10,vomiting,N,1,59,60,NOT APPLICABLE,
S0089,11,arthralgia,N,2,65,66,NOT APPLICABLE,
S0089,12,hypoalbuminemia,N,1,86,87,NOT APPLICABLE,
S0089,13,neutropenia,N,1,92,93,NOT APPLICABLE,
S0089,14,hemoglobin_normal_12_16_gm,N,2,100,101,NOT APPLICABLE,
S0089,15,peripheral_motor_neuropathy,N,1,102,103,NOT APPLICABLE,
S0089,16,anorexia,N,2,106,107,NOT APPLICABLE,
S0089,17,myalgia,N,1,109,110,NOT APPLICABLE,
S0089,18,sweating,N,2,132,133,NOT APPLICABLE,
S0089,19,platelets,N,2,151,152,NOT APPLICABLE,
S0089,20,hypernatremia,N,2,162,163,NOT APPLICABLE,
S0090,1,leukocytes,N,2,3,4,NOT APPLICABLE,
S0090,2,hypoalbuminemia,N,2,28,29,NOT APPLICABLE,
S0090,3,hypocalcemia,N,1,68,69,NOT APPLICABLE,
S0090,4,arthralgia,N,1,81,82,NOT APPLICABLE,
S0090,5,hypernatremia,N,2,115,116,NOT APPLICABLE,
S0090,6,depression_dominant,N,1,118,119,NOT APPLICABLE,
S0090,7,myalgia,N,2,149,150,NOT APPLICABLE,
S0090,8,coughing,N,1,163,164,NOT APPLICABLE,
S0090,9,neuropathy_-_motor,N,2,197,204,NOT APPLICABLE,
S0091,1,hyperkalemia,N,2,49,50,NOT APPLICABLE,
S0091,2,platelets,N,2,58,59,reduce_percent,DM008
S0091,3,anorexia,N,1,58,59,NOT APPLICABLE,
S0091,4,gastrointestinal,N,2,69,70,NOT APPLICABLE,
S0091,5,neutrophil_count_decreased,N,2,83,84,NOT APPLICABLE,
S0091,6,coughing,N,1,97,98,NOT APPLICABLE,
S0091,7,fatigue,N,1,111,112,NOT APPLICABLE,
S0091,8,arthralgia,N,1,133,134,NOT APPLICABLE,
S0091,9,hypertriglyceridemia,N,2,135,136,NOT APPLICABLE,
S0091,10,neutropenia,N,1,142,143,NOT APPLICABLE,
S0091,11,muscle_weakness,N,2,145,146,NOT APPLICABLE,
S0091,12,hemoglobin_normal_12_16_gm,N,1,151,152,NOT APPLICABLE,
S0091,13,neuropathy_-_sensory,N,1,160,161,NOT APPLICABLE,
S0091,14,nausea,N,1,166,167,NOT APPLICABLE,
S0091,15,upper_respiratory_infections,N,1,181,188,NOT APPLICABLE,
S0092,1,hypophosphatemia,N,1,19,20,NOT APPLICABLE,
S0092,2,hypernatremia,N,2,27,28,NOT APPLICABLE,
S0092,3,neuropathy_-_motor,N,1,42,43,NOT APPLICABLE,
S0092,4,fatigue,N,1,49,50,NOT APPLICABLE,
S0092,5,sensory_neuropathy,N,1,52,53,NOT APPLICABLE,
S0092,6,dyspnea,N,1,57,58,NOT APPLICABLE,
S0092,7,depression_dominant,N,1,58,59,NOT APPLICABLE,
S0092,8,hypoalbuminemia,N,1,58,59,NOT APPLICABLE,
S0092,9,catheter_related_infection,N,2,80,81,NOT APPLICABLE,
S0092,10,myalgia,N,1,111,112,NOT APPLICABLE,
S0092,11,arthralgia,N,1,137,138,NOT APPLICABLE,
S0092,12,hypocalcemia,N,2,137,138,NOT APPLICABLE,
S0092,13,hemoglobin_normal_12_16_gm,N,2,141,142,NOT APPLICABLE,
S0092,14,leukocytes,N,2,183,190,NOT APPLICABLE,
S0092,15,coughing,N,2,195,202,NOT APPLICABLE,
S0092,16,constipation,N,1,197,204,NOT APPLICABLE,
S0093,1,hypernatremia,N,2,25,26,NOT APPLICABLE,
S0093,2,hypocalcemia,N,1,33,34,NOT APPLICABLE,
S0093,3,nausea,N,1,67,68,NOT APPLICABLE,
S0093,4,hypoalbuminemia,N,2,101,102,NOT APPLICABLE,
S0093,5,seizures,N,1,108,109,NOT APPLICABLE,
S0093,6,neuropathy_-_motor,N,1,112,113,NOT APPLICABLE,
S0093,7,catheter_related_infection,N,1,125,126,NOT APPLICABLE,
S0093,8,depression_dominant,N,1,143,144,NOT APPLICABLE,
S0093,9,myalgia,N,1,158,159,NOT APPLICABLE,
S0093,10,coughing,N,2,172,179,NOT APPLICABLE,
S0093,11,leukocytes,N,1,182,189,NOT APPLICABLE,
S0094,1,anorexia,N,1,15,16,NOT APPLICABLE,
S0094,2,weight_loss,N,2,16,17,NOT APPLICABLE,
S0094,3,anemia,N,2,25,26,NOT APPLICABLE,
S0094,4,hypophosphatemia,N,2,29,30,NOT APPLICABLE,
S0094,5,allergic_rhinitis_disorder,N,2,33,34,NOT APPLICABLE,
S0094,6,hyponatremia,N,1,36,37,NOT APPLICABLE,
S0094,7,hypernatremia,N,2,40,41,NOT APPLICABLE,
S0094,8,hemoglobin_normal_12_16_gm,Y,3,46,48,NOT APPLICABLE,
S0094,9,vomiting,N,2,47,48,NOT APPLICABLE,
S0094,10,gastrointestinal,N,1,54,55,NOT APPLICABLE,
S0094,11,nausea,N,1,58,59,NOT APPLICABLE,
S0094,12,depression_dominant,N,1,60,61,NOT APPLICABLE,
S0094,13,sensory_neuropathy,N,1,60,61,NOT APPLICABLE,
S0094,14,leukocytes,N,2,63,64,NOT APPLICABLE,
S0094,15,dry_skin,N,1,63,64,NOT APPLICABLE,
S0094,16,dyspnea,N,1,74,75,NOT APPLICABLE,
S0094,17,seizures,Y,3,77,79,NOT APPLICABLE,
S0094,18,constipation,N,1,80,81,NOT APPLICABLE,
S0094,19,coughing,N,1,81,82,NOT APPLICABLE,
S0094,20,hemoglobin_normal_12_16_gm,N,2,83,84,NOT APPLICABLE,
S0094,21,neuropathy_-_motor,N,2,92,93,NOT APPLICABLE,
S0094,22,myalgia,N,2,97,98,NOT APPLICABLE,
S0094,23,alopecia,N,2,98,99,NOT APPLICABLE,
S0094,24,alanine_aminotransferase_increased,N,2,111,112,NOT APPLICABLE,
S0094,25,seizures,N,2,130,131,NOT APPLICABLE,
S0094,26,sleeplessness,N,1,135,136,NOT APPLICABLE,
S0094,27,neutropenia,N,2,135,136,NOT APPLICABLE,
S0094,28,hypercholesterolemia,N,2,140,141,NOT APPLICABLE,
S0094,29,blurred_vision,N,2,142,143,NOT APPLICABLE,
S0094,30,leukocytes_(total_wbc),N,2,143,144,NOT APPLICABLE,
S0094,31,dizziness,N,2,150,151,NOT APPLICABLE,
S0094,32,platelets,N,2,152,153,reduce_percent,DM008
S0094,33,decreased_platelet_count,N,2,156,157,reduce_percent,DM008
S0094,34,headache,N,2,157,158,NOT APPLICABLE,
S0094,35,hypocalcemia,N,2,160,161,NOT APPLICABLE,
S0094,36,arthralgia,N,1,162,163,NOT APPLICABLE,
S0094,37,fatigue,N,2,164,165,NOT APPLICABLE,
S0094,38,hypoalbuminemia,N,1,171,178,NOT APPLICABLE,
S0094,39,diarrhea,N,1,173,180,NOT APPLICABLE,
S0094,40,fever,N,1,181,188,NOT APPLICABLE,
S0094,41,rhinitis,N,2,192,199,NOT APPLICABLE,
S0094,42,anxiety,N,2,195,202,NOT APPLICABLE,
S0094,43,catheter_related_infection,N,2,197,204,NOT APPLICABLE,
S0095,1,neutrophil_count_decreased,N,2,7,8,NOT APPLICABLE,
S0095,2,myalgia,N,1,48,49,NOT APPLICABLE,
S0095,3,alopecia,N,2,64,65,NOT APPLICABLE,
S0095,4,hemoglobin_normal_12_16_gm,N,2,74,75,NOT APPLICABLE,
S0095,5,neuropathy_-_sensory,N,1,85,86,NOT APPLICABLE,
S0095,6,dizziness,N,1,89,90,NOT APPLICABLE,
S0095,7,muscle_weakness,N,2,91,92,NOT APPLICABLE,
S0095,8,nausea,N,2,96,97,NOT APPLICABLE,
S0095,9,platelets,N,1,104,105,reduce_percent,DM008
S0095,10,fatigue,N,1,105,106,NOT APPLICABLE,
S0095,11,catheter_related_infection,N,2,114,115,NOT APPLICABLE,
S0095,12,decreased_platelet_count,N,1,117,118,NOT APPLICABLE,
S0095,13,rhinitis,N,2,118,119,NOT APPLICABLE,
S0095,14,neutropenia,N,2,124,125,NOT APPLICABLE,
S0095,15,dyspnea,N,2,133,134,NOT APPLICABLE,
S0096,1,hypoalbuminemia,N,1,1,2,NOT APPLICABLE,
S0096,2,leukocytes,N,2,2,3,NOT APPLICABLE,
S0096,3,alopecia,N,1,63,64,NOT APPLICABLE,
S0096,4,neuropathy_-_motor,N,1,73,74,NOT APPLICABLE,
S0096,5,hypocalcemia,N,1,74,75,NOT APPLICABLE,
S0096,6,myalgia,N,2,78,79,NOT APPLICABLE,
S0096,7,depression_dominant,N,2,183,190,NOT APPLICABLE,
S0097,1,hyponatremia,N,2,9,10,NOT APPLICABLE,
S0097,2,vomiting,N,1,19,20,NOT APPLICABLE,
S0097,3,dyspnea,N,1,19,20,NOT APPLICABLE,
S0097,4,hemoglobin_normal_12_16_gm,N,2,25,26,NOT APPLICABLE,
S0097,5,arthralgia,N,2,34,35,NOT APPLICABLE,
S0097,6,hypernatremia,N,1,34,35,NOT APPLICABLE,
S0097,7,hypertriglyceridemia,N,2,40,41,NOT APPLICABLE,
S0097,8,thrombocytopenia,N,2,48,49,reduce_percent,DM008
S0097,9,thrombosis/thrombus/embolism,Y,3,54,56,NOT APPLICABLE,
S0097,10,fatigue,N,1,56,57,NOT APPLICABLE,
S0097,11,nausea,N,2,89,90,NOT APPLICABLE,
S0097,12,hyperkalemia,N,2,109,110,NOT APPLICABLE,
S0097,13,hypokalemia,N,2,109,110,NOT APPLICABLE,
S0097,14,gastrointestinal,N,2,109,110,NOT APPLICABLE,
S0097,15,muscle_weakness,N,1,115,116,NOT APPLICABLE,
S0097,16,platelets,N,2,145,146,reduce_percent,DM008
S0097,17,allergic_rhinitis_disorder,N,1,148,149,NOT APPLICABLE,
S0097,18,alopecia,N,1,149,150,NOT APPLICABLE,
S0097,19,coughing,N,2,177,184,NOT APPLICABLE,
S0097,20,neuropathy_-_sensory,N,1,183,190,NOT APPLICABLE,
S0098,1,arthralgia,N,2,21,22,NOT APPLICABLE,
S0098,2,sensory_neuropathy,N,2,23,24,NOT APPLICABLE,
S0098,3,anorexia,N,1,34,35,NOT APPLICABLE,
S0098,4,fatigue,N,2,35,36,NOT APPLICABLE,
S0098,5,hypoalbuminemia,N,1,36,37,NOT APPLICABLE,
S0098,6,seizures,N,2,42,43,NOT APPLICABLE,
S0098,7,nausea,N,2,44,45,NOT APPLICABLE,
S0098,8,hypernatremia,N,1,44,45,NOT APPLICABLE,
S0098,9,hypocalcemia,N,1,44,45,NOT APPLICABLE,
S0098,10,coughing,N,1,45,46,NOT APPLICABLE,
S0098,11,leukocytes,N,2,45,46,NOT APPLICABLE,
S0098,12,depression_dominant,N,2,53,54,NOT APPLICABLE,
S0098,13,fever,N,2,59,60,NOT APPLICABLE,
S0098,14,myalgia,N,2,62,63,NOT APPLICABLE,
S0098,15,alopecia,N,2,66,67,NOT APPLICABLE,
S0098,16,hypophosphatemia,N,1,68,69,NOT APPLICABLE,
S0098,17,neuropathy_-_motor,N,2,85,86,NOT APPLICABLE,
S0098,18,gastrointestinal,N,1,89,90,NOT APPLICABLE,
S0099,1,neuropathy_-_motor,N,2,5,6,NOT APPLICABLE,
S0099,2,platelets,Y,3,6,8,reduce_percent,DM008
S0099,3,fatigue,N,2,30,31,NOT APPLICABLE,
S0099,4,sweating,N,2,41,42,NOT APPLICABLE,
S0099,5,hypokalemia,N,2,53,54,NOT APPLICABLE,
S0099,6,dizziness,N,1,56,57,NOT APPLICABLE,
S0099,7,muscle_weakness,N,1,60,61,NOT APPLICABLE,
S0099,8,thrombocytopenia,N,1,64,65,reduce_percent,DM008
S0099,9,fever,Y,3,86,88,NOT APPLICABLE,
S0099,10,platelets,N,1,88,89,reduce_percent,DM008
S0099,11,neuropathy-motor,N,2,90,91,NOT APPLICABLE,
S0099,12,nausea,N,1,92,93,NOT APPLICABLE,
S0099,13,dysgeusia,N,1,97,98,NOT APPLICABLE,
S0099,14,vomiting,N,2,137,138,NOT APPLICABLE,
S0099,15,neutropenia,N,1,152,153,NOT APPLICABLE,
S0099,16,hemoglobin_normal_12_16_gm,N,1,159,160,NOT APPLICABLE,
S0099,17,alanine_aminotransferase_increased,N,2,167,168,NOT APPLICABLE,
S0099,18,neuropathy_-_sensory,N,2,171,178,NOT APPLICABLE,
S0099,19,hypernatremia,N,1,173,180,NOT APPLICABLE,
S0099,20,gastrointestinal,N,2,185,192,NOT APPLICABLE,
S0099,21,hypocalcemia,N,1,193,200,NOT APPLICABLE,
S0100,1,leukocytes,N,1,5,6,NOT APPLICABLE,
S0100,2,neuropathy_-_motor,N,1,24,25,NOT APPLICABLE,
S0100,3,myalgia,N,2,33,34,NOT APPLICABLE,
S0100,4,depression_dominant,N,2,33,34,NOT APPLICABLE,
S0100,5,arthralgia,N,2,38,39,NOT APPLICABLE,
S0100,6,alopecia,N,2,39,40,NOT APPLICABLE,
S0100,7,sensory_neuropathy,N,2,41,42,NOT APPLICABLE,
S0100,8,constipation,N,1,55,56,NOT APPLICABLE,
S0100,9,coughing,N,2,56,57,NOT APPLICABLE,
S0100,10,hypoalbuminemia,N,2,56,57,NOT APPLICABLE,
S0100,11,hypocalcemia,N,1,64,65,NOT APPLICABLE,
S0100,12,hypernatremia,N,2,65,66,NOT APPLICABLE,
S0101,1,anemia,N,2,6,7,NOT APPLICABLE,
S0101,2,myalgia,N,1,7,8,NOT APPLICABLE,
S0101,3,decreased_platelet_count,N,2,7,8,reduce_percent,DM008
S0101,4,gastrointestinal,N,2,11,12,NOT APPLICABLE,
S0101,5,alanine_aminotransferase_increased,N,2,12,13,NOT APPLICABLE,
S0101,6,anorexia,N,2,29,30,NOT APPLICABLE,
S0101,7,hypercholesterolemia,N,1,30,31,NOT APPLICABLE,
S0101,8,dyspnea,N,1,35,36,NOT APPLICABLE,
S0101,9,anxiety,N,2,38,39,NOT APPLICABLE,
S0101,10,fatigue,N,2,45,46,NOT APPLICABLE,
S0101,11,hypocalcemia,N,1,45,46,NOT APPLICABLE,
S0101,12,arthralgia,N,1,57,58,NOT APPLICABLE,
S0101,13,dry_skin,N,2,63,64,NOT APPLICABLE,
S0101,14,neuropathy_-_motor,N,2,64,65,NOT APPLICABLE,
S0101,15,rash_erythematous_macules_or_papules,N,1,66,67,NOT APPLICABLE,
S0101,16,vomiting,N,2,74,75,NOT APPLICABLE,
S0101,17,leukocytes_(total_wbc),N,1,81,82,NOT APPLICABLE,
S0101,18,depression_dominant,N,1,83,84,NOT APPLICABLE,
S0101,19,weight_loss,N,1,83,84,NOT APPLICABLE,
S0101,20,hypophosphatemia,N,1,85,86,NOT APPLICABLE,
S0101,21,headache,N,1,89,90,NOT APPLICABLE,
S0101,22,constipation,N,1,91,92,NOT APPLICABLE,
S0101,23,leukocytes,N,2,92,93,NOT APPLICABLE,
S0101,24,coughing,N,2,104,105,NOT APPLICABLE,
S0101,25,upper_respiratory_infections,N,2,110,111,NOT APPLICABLE,
S0101,26,seizures,Y,3,116,118,NOT APPLICABLE,
S0101,27,sleeplessness,N,2,117,118,NOT APPLICABLE,
S0101,28,hypokalemia,N,2,117,118,NOT APPLICABLE,
S0101,29,hypokalemia,Y,3,117,119,NOT APPLICABLE,
S0101,30,platelets,N,2,118,119,reduce_percent,DM008
S0101,31,sweating,N,1,126,127,NOT APPLICABLE,
S0101,32,sensory_neuropathy,N,2,139,140,NOT APPLICABLE,
S0101,33,hemoglobin_normal_12_16_gm,Y,3,146,148,NOT APPLICABLE,
S0101,34,hyperglycemia,N,2,147,148,NOT APPLICABLE,
S0101,35,blurred_vision,N,1,148,149,NOT APPLICABLE,
S0101,36,rhinitis,N,1,151,152,NOT APPLICABLE,
S0101,37,muscle_weakness,N,1,155,156,NOT APPLICABLE,
S0101,38,dizziness,N,2,158,159,NOT APPLICABLE,
S0101,39,hemoglobin_normal_12_16_gm,N,2,162,163,NOT APPLICABLE,
S0101,40,neutropenia,N,2,164,165,NOT APPLICABLE,
S0101,41,thrombosis/thrombus/embolism,Y,3,166,168,NOT APPLICABLE,
S0101,42,neutrophils,Y,3,169,183,NOT APPLICABLE,
S0101,43,seizures,N,2,178,185,NOT APPLICABLE,
S0101,44,catheter_related_infection,N,1,179,186,NOT APPLICABLE,
S0101,45,hypoalbuminemia,N,1,181,188,NOT APPLICABLE,
S0101,46,alopecia,N,1,187,194,NOT APPLICABLE,
S0101,47,hypernatremia,N,1,190,197,NOT APPLICABLE,
S0101,48,nausea,N,1,191,198,NOT APPLICABLE,
S0101,49,diarrhea,N,2,195,202,NOT APPLICABLE,
S0102,1,hypoalbuminemia,N,1,2,3,NOT APPLICABLE,
S0102,2,neutrophils,Y,3,7,9,NOT APPLICABLE,
S0102,3,depression_dominant,N,1,24,25,NOT APPLICABLE,
S0102,4,blurred_vision,N,2,25,26,NOT APPLICABLE,
S0102,5,sensory_neuropathy,N,2,43,44,NOT APPLICABLE,
S0102,6,coughing,N,2,45,46,NOT APPLICABLE,
S0102,7,anemia,N,1,50,51,NOT APPLICABLE,
S0102,8,hypophosphatemia,N,2,57,58,NOT APPLICABLE,
S0102,9,anxiety,N,2,65,66,NOT APPLICABLE,
S0102,10,rhinitis,N,1,74,75,NOT APPLICABLE,
S0102,11,arthralgia,N,1,94,95,NOT APPLICABLE,
S0102,12,hypocalcemia,N,1,96,97,NOT APPLICABLE,
S0102,13,dyspnea,N,2,98,99,NOT APPLICABLE,
S0102,14,seizures,N,1,103,104,NOT APPLICABLE,
S0102,15,dizziness,N,1,116,117,NOT APPLICABLE,
S0102,16,anorexia,N,2,118,119,NOT APPLICABLE,
S0102,17,hypernatremia,N,1,119,120,NOT APPLICABLE,
S0102,18,fatigue,N,2,125,126,NOT APPLICABLE,
S0102,19,alopecia,N,1,126,127,NOT APPLICABLE,
S0102,20,platelets,N,1,135,136,reduce_percent,DM008
S0102,21,myalgia,N,1,136,137,NOT APPLICABLE,
S0102,22,weight_loss,N,2,143,144,NOT APPLICABLE,
S0102,23,neuropathy_-_motor,N,1,151,152,NOT APPLICABLE,
S0102,24,catheter_related_infection,N,1,157,158,NOT APPLICABLE,
S0102,25,sweating,N,1,163,164,NOT APPLICABLE,
S0102,26,neutropenia,N,1,165,166,NOT APPLICABLE,
S0102,27,leukocytes_(total_wbc),N,1,168,175,NOT APPLICABLE,
S0102,28,constipation,N,1,175,182,NOT APPLICABLE,
S0102,29,gastrointestinal,N,1,179,186,NOT APPLICABLE,
S0102,30,leukocytes,N,1,191,198,NOT APPLICABLE,
S0102,31,hemoglobin_normal_12_16_gm,N,1,198,205,NOT APPLICABLE,
S0103,1,neuropathy_-_motor,N,2,64,65,NOT APPLICABLE,
S0104,1,fatigue,N,2,7,8,NOT APPLICABLE,
S0104,2,hemoglobin_normal_12_16_gm,N,2,12,13,NOT APPLICABLE,
S0104,3,nausea,N,1,29,30,NOT APPLICABLE,
S0104,4,thrombocytopenia,N,1,30,31,reduce_percent,DM008
S0104,5,edema,N,1,33,34,NOT APPLICABLE,
S0104,6,sleeplessness,N,2,34,35,NOT APPLICABLE,
S0104,7,neuropathy_-_sensory,N,1,35,36,NOT APPLICABLE,
S0104,8,hypernatremia,N,1,49,50,NOT APPLICABLE,
S0104,9,neutropenia,N,1,53,54,NOT APPLICABLE,
S0104,10,muscle_weakness,N,2,57,58,NOT APPLICABLE,
S0104,11,platelets,N,1,65,66,NOT APPLICABLE,
S0104,12,dizziness,N,1,65,66,NOT APPLICABLE,
S0104,13,anorexia,N,1,70,71,NOT APPLICABLE,
S0104,14,hypocalcemia,N,1,73,74,NOT APPLICABLE,
S0104,15,vomiting,N,2,74,75,NOT APPLICABLE,
S0104,16,seizures,N,2,82,83,NOT APPLICABLE,
S0104,17,arthralgia,N,2,89,90,NOT APPLICABLE,
S0105,1,sensory_neuropathy,N,1,3,4,NOT APPLICABLE,
S0105,2,myalgia,N,1,9,10,NOT APPLICABLE,
S0105,3,alopecia,N,2,16,17,NOT APPLICABLE,
S0105,4,hypoalbuminemia,N,2,21,22,NOT APPLICABLE,
S0105,5,depression_dominant,N,2,22,23,NOT APPLICABLE,
S0105,6,neuropathy_-_motor,N,1,25,26,NOT APPLICABLE,
S0105,7,fatigue,N,1,30,31,NOT APPLICABLE,
S0105,8,leukocytes,N,1,69,70,NOT APPLICABLE,
S0105,9,sleeplessness,N,1,76,77,NOT APPLICABLE,
S0105,10,hypocalcemia,N,2,77,78,NOT APPLICABLE,
S0105,11,catheter_related_infection,N,1,95,96,NOT APPLICABLE,
S0105,12,arthralgia,N,1,101,102,NOT APPLICABLE,
S0105,13,hypernatremia,N,2,102,103,NOT APPLICABLE,
S0105,14,seizures,N,2,110,111,NOT APPLICABLE,
S0106,1,thrombosis,Y,3,5,7,NOT APPLICABLE,
S0106,2,dyspnea,N,2,34,35,NOT APPLICABLE,
S0106,3,depression_dominant,N,1,38,39,NOT APPLICABLE,
S0106,4,anemia,N,2,45,46,NOT APPLICABLE,
S0106,5,muscle_weakness,N,2,47,48,NOT APPLICABLE,
S0106,6,dizziness,N,1,50,51,NOT APPLICABLE,
S0106,7,neuropathy_-_sensory,N,1,84,85,NOT APPLICABLE,
S0106,8,thrombosis/thrombus/embolism,Y,3,88,90,NOT APPLICABLE,
S0106,9,neutropenia,N,2,110,111,NOT APPLICABLE,
S0106,10,gastrointestinal,N,1,111,112,NOT APPLICABLE,
S0106,11,headache,N,1,117,118,NOT APPLICABLE,
S0106,12,platelets,N,2,125,126,reduce_percent,DM008
S0106,13,neutrophils,N,1,135,136,NOT APPLICABLE,
S0106,14,neutrophil_count_decreased,N,1,139,140,NOT APPLICABLE,
S0106,15,nausea,N,2,181,188,NOT APPLICABLE,
S0106,16,fatigue,N,1,188,195,NOT APPLICABLE,
S0106,17,hemoglobin_normal_12_16_gm,N,2,192,199,NOT APPLICABLE,
S0106,18,alopecia,N,2,197,204,NOT APPLICABLE,
S0107,1,myalgia,N,2,5,6,NOT APPLICABLE,
S0107,2,depression_dominant,N,2,20,21,NOT APPLICABLE,
S0107,3,hypernatremia,N,1,34,35,NOT APPLICABLE,
S0107,4,hypocalcemia,N,2,65,66,NOT APPLICABLE,
S0107,5,neuropathy_-_motor,N,1,78,79,NOT APPLICABLE,
S0107,6,leukocytes,N,2,85,86,NOT APPLICABLE,
S0108,1,seizures,N,2,14,15,NOT APPLICABLE,
S0108,2,leukocytes,N,1,14,15,NOT APPLICABLE,
S0108,3,neuropathy_-_motor,N,1,23,24,NOT APPLICABLE,
S0108,4,myalgia,N,1,34,35,NOT APPLICABLE,
S0108,5,alopecia,N,1,36,37,NOT APPLICABLE,
S0108,6,hypernatremia,N,2,41,42,NOT APPLICABLE,
S0108,7,hypoalbuminemia,N,2,62,63,NOT APPLICABLE,
S0108,8,depression_dominant,N,1,68,69,NOT APPLICABLE,
S0108,9,coughing,N,1,109,110,NOT APPLICABLE,
S0108,10,hypocalcemia,N,2,112,113,NOT APPLICABLE,
S0109,1,seizures,N,2,1,2,NOT APPLICABLE,
S0109,2,depression_dominant,N,2,1,2,NOT APPLICABLE,
S0109,3,coughing,N,1,36,37,NOT APPLICABLE,
S0109,4,catheter_related_infection,N,2,39,40,NOT APPLICABLE,
S0109,5,neuropathy_-_motor,N,1,62,63,NOT APPLICABLE,
S0109,6,neutropenia,N,2,63,64,NOT APPLICABLE,
S0109,7,sleeplessness,N,2,99,100,NOT APPLICABLE,
S0109,8,decreased_platelet_count,N,1,103,104,reduce_percent,DM008
S0109,9,anemia,N,2,109,110,NOT APPLICABLE,
S0109,10,peripheral_motor_neuropathy,N,1,112,113,NOT APPLICABLE,
S0109,11,arthralgia,N,1,122,123,NOT APPLICABLE,
S0109,12,hypocalcemia,N,1,123,124,NOT APPLICABLE,
S0109,13,dyspnea,N,2,127,128,NOT APPLICABLE,
S0109,14,nausea,N,2,132,133,NOT APPLICABLE,
S0109,15,gastrointestinal,N,1,135,136,NOT APPLICABLE,
S0109,16,hypoalbuminemia,N,1,152,153,NOT APPLICABLE,
S0109,17,myalgia,N,1,154,155,NOT APPLICABLE,
S0109,18,sensory_neuropathy,N,1,172,179,NOT APPLICABLE,
S0109,19,hypernatremia,N,2,189,196,NOT APPLICABLE,
S0109,20,constipation,N,1,191,198,NOT APPLICABLE,
S0109,21,leukocytes,N,2,196,203,NOT APPLICABLE,
S0109,22,alopecia,N,2,198,205,NOT APPLICABLE,
S0110,1,neuropathy_-_motor,N,2,6,7,NOT APPLICABLE,
S0110,2,leukocytes,N,1,19,20,NOT APPLICABLE,
S0110,3,myalgia,N,1,32,33,NOT APPLICABLE,
S0110,4,depression_dominant,N,1,71,72,NOT APPLICABLE,
S0110,5,hypoalbuminemia,N,2,117,118,NOT APPLICABLE,
S0110,6,catheter_related_infection,N,2,128,129,NOT APPLICABLE,
S0111,1,nausea,N,1,9,10,NOT APPLICABLE,
S0111,2,constipation,N,2,10,11,NOT APPLICABLE,
S0111,3,anemia,N,1,16,17,NOT APPLICABLE,
S0111,4,headache,N,2,27,28,NOT APPLICABLE,
S0111,5,platelets,N,2,33,34,reduce_percent,DM008
S0111,6,anorexia,N,1,35,36,NOT APPLICABLE,
S0111,7,fatigue,N,1,36,37,NOT APPLICABLE,
S0111,8,hypernatremia,N,2,45,46,NOT APPLICABLE,
S0111,9,coughing,N,1,47,48,NOT APPLICABLE,
S0111,10,hyperkalemia,N,1,51,52,NOT APPLICABLE,
S0111,11,hemoglobin_normal_12_16_gm,N,2,58,59,NOT APPLICABLE,
S0111,12,rhinitis,N,2,62,63,NOT APPLICABLE,
S0111,13,neuropathy_-_sensory,N,2,81,82,NOT APPLICABLE,
S0111,14,gastrointestinal,N,2,94,95,NOT APPLICABLE,
S0111,15,thrombosis/thrombus/embolism,Y,3,94,96,NOT APPLICABLE,
S0111,16,neutrophil_count_decreased,N,1,99,100,NOT APPLICABLE,
S0111,17,thrombocytopenia,N,1,101,102,reduce_percent,DM008
S0111,18,muscle_weakness,N,2,109,110,NOT APPLICABLE,
S0111,19,dyspnea,N,1,127,128,NOT APPLICABLE,
S0111,20,neutropenia,N,2,153,154,NOT APPLICABLE,
S0111,21,sleeplessness,N,1,174,181,NOT APPLICABLE,
S0112,1,neuropathy_-_sensory,N,2,1,2,NOT APPLICABLE,
S0112,2,fatigue,N,2,11,12,NOT APPLICABLE,
S0112,3,sweating,N,1,16,17,NOT APPLICABLE,
S0112,4,fever,N,1,16,17,NOT APPLICABLE,
S0112,5,hypernatremia,N,2,17,18,NOT APPLICABLE,
S0112,6,vomiting,N,2,22,23,NOT APPLICABLE,
S0112,7,platelets,N,1,40,41,reduce_percent,DM008
S0112,8,myalgia,N,1,45,46,NOT APPLICABLE,
S0112,9,neutrophils,Y,3,54,56,NOT APPLICABLE,
S0112,10,constipation,N,1,55,56,NOT APPLICABLE,
S0112,11,anemia,N,1,57,58,NOT APPLICABLE,
S0112,12,muscle_weakness,N,1,61,62,NOT APPLICABLE,
S0112,13,dyspnea,N,1,67,68,NOT APPLICABLE,
S0112,14,hemoglobin_normal_12_16_gm,N,1,80,81,NOT APPLICABLE,
S0112,15,anorexia,N,2,87,88,NOT APPLICABLE,
S0112,16,nausea,N,1,90,91,NOT APPLICABLE,
S0113,1,neutrophil_count_decreased,N,1,15,16,NOT APPLICABLE,
S0113,2,alanine_aminotransferase_increased,N,1,16,17,NOT APPLICABLE,
S0113,3,upper_respiratory_infections,N,1,16,17,NOT APPLICABLE,
S0113,4,hemoglobin_normal_12_16_gm,N,2,21,22,NOT APPLICABLE,
S0113,5,neuropathy_-_sensory,N,1,49,50,NOT APPLICABLE,
S0113,6,muscle_weakness,N,1,56,57,NOT APPLICABLE,
S0113,7,dyspnea,N,2,58,59,NOT APPLICABLE,
S0113,8,neutrophils,N,2,78,79,NOT APPLICABLE,
S0113,9,peripheral_motor_neuropathy,N,1,88,89,NOT APPLICABLE,
S0113,10,platelets,N,1,95,96,reduce_percent,DM008
S0113,11,sweating,N,2,95,96,NOT APPLICABLE,
S0113,12,vomiting,N,2,97,98,NOT APPLICABLE,
S0113,13,dizziness,N,2,104,105,NOT APPLICABLE,
S0113,14,hyperkalemia,N,2,106,107,NOT APPLICABLE,
S0113,15,fatigue,N,1,111,112,NOT APPLICABLE,
S0113,16,hypernatremia,N,1,137,138,NOT APPLICABLE,
S0113,17,anorexia,N,2,157,158,NOT APPLICABLE,
S0113,18,constipation,N,2,167,168,NOT APPLICABLE,
S0113,19,anxiety,N,1,176,183,NOT APPLICABLE,
S0113,20,neuropathy_-_motor,N,2,178,185,NOT APPLICABLE,
S0113,21,neutropenia,N,1,182,189,NOT APPLICABLE,
S0114,1,anemia,N,1,5,6,NOT APPLICABLE,
S0114,2,vomiting,N,1,19,20,NOT APPLICABLE,
S0114,3,hemoglobin_normal_12_16_gm,N,2,39,40,NOT APPLICABLE,
S0114,4,muscle_weakness,N,1,40,41,NOT APPLICABLE,
S0114,5,sweating,N,1,56,57,NOT APPLICABLE,
S0114,6,platelets,N,1,63,64,reduce_percent,DM008
S0114,7,thrombocytopenia,N,2,81,82,reduce_percent,DM008
S0114,8,headache,N,2,89,90,NOT APPLICABLE,
S0114,9,dizziness,N,2,106,107,NOT APPLICABLE,
S0114,10,neuropathy_-_sensory,N,1,112,113,NOT APPLICABLE,
S0114,11,nausea,N,2,114,115,NOT APPLICABLE,
S0114,12,hydrocephalus,Y,3,115,117,NOT APPLICABLE,
S0114,13,peripheral_motor_neuropathy,N,2,134,135,NOT APPLICABLE,
S0114,14,alopecia,N,2,137,138,NOT APPLICABLE,
S0115,1,fatigue,N,2,7,8,NOT APPLICABLE,
S0115,2,rhinitis,N,2,19,20,NOT APPLICABLE,
S0115,3,hypertriglyceridemia,N,2,23,24,NOT APPLICABLE,
S0115,4,coughing,N,2,26,27,NOT APPLICABLE,
S0115,5,muscle_weakness,N,1,27,28,NOT APPLICABLE,
S0115,6,hypokalemia,Y,3,27,29,NOT APPLICABLE,
S0115,7,neutrophil_count_decreased,N,1,39,40,NOT APPLICABLE,
S0115,8,thrombocytopenia,N,2,40,41,reduce_percent,DM008
S0115,9,platelets,N,1,45,46,reduce_percent,DM008
S0115,10,anemia,N,2,47,48,NOT APPLICABLE,
S0115,11,allergic_rhinitis_disorder,N,1,49,50,NOT APPLICABLE,
S0115,12,hypernatremia,N,1,51,52,NOT APPLICABLE,
S0115,13,sensory_neuropathy,N,1,57,58,NOT APPLICABLE,
S0115,14,constipation,N,1,64,65,NOT APPLICABLE,
S0115,15,headache,N,1,68,69,NOT APPLICABLE,
S0115,16,peripheral_motor_neuropathy,N,1,69,70,NOT APPLICABLE,
S0115,17,nausea,N,1,76,77,NOT APPLICABLE,
S0115,18,neuropathy_-_sensory,N,1,78,79,NOT APPLICABLE,
S0115,19,thrombosis/thrombus/embolism,Y,3,90,92,NOT APPLICABLE,
S0115,20,fever,N,2,91,92,NOT APPLICABLE,
S0116,1,leukocytes,N,1,4,5,NOT APPLICABLE,
S0116,2,depression_dominant,N,2,8,9,NOT APPLICABLE,
S0116,3,hypoalbuminemia,N,1,59,60,NOT APPLICABLE,
S0116,4,alopecia,N,1,60,61,NOT APPLICABLE,
S0116,5,coughing,N,1,60,61,NOT APPLICABLE,
S0116,6,hypocalcemia,N,1,61,62,NOT APPLICABLE,
S0116,7,seizures,N,1,85,86,NOT APPLICABLE,
S0116,8,neuropathy_-_motor,N,2,93,94,NOT APPLICABLE,
S0116,9,fever,N,1,104,105,NOT APPLICABLE,
S0116,10,myalgia,N,2,113,114,NOT APPLICABLE,
S0116,11,catheter_related_infection,N,1,119,120,NOT APPLICABLE,
S0116,12,hypophosphatemia,N,2,123,124,NOT APPLICABLE,
S0116,13,hypernatremia,N,2,140,141,NOT APPLICABLE,
S0117,1,platelets,N,2,10,11,reduce_percent,DM008
S0117,2,nausea,N,2,18,19,NOT APPLICABLE,
S0117,3,catheter_related_infection,N,2,36,37,NOT APPLICABLE,
S0117,4,hemoglobin_normal_12_16_gm,N,2,43,44,NOT APPLICABLE,
S0117,5,muscle_weakness,N,1,49,50,NOT APPLICABLE,
S0117,6,fever,N,2,136,137,NOT APPLICABLE,
S0117,7,dyspnea,N,1,162,163,NOT APPLICABLE,
S0117,8,depression_dominant,N,2,175,182,NOT APPLICABLE,
S0117,9,neuropathy_-_sensory,N,1,178,185,NOT APPLICABLE,
S0117,10,neutrophil_count_decreased,N,2,183,190,NOT APPLICABLE,
S0117,11,hypoalbuminemia,N,2,183,190,NOT APPLICABLE,
S0117,12,neutrophils,Y,3,187,201,NOT APPLICABLE,
S0117,13,blurred_vision,N,1,191,198,NOT APPLICABLE,
S0117,14,gastrointestinal,N,2,197,204,NOT APPLICABLE,
S0118,1,anxiety,N,2,34,35,NOT APPLICABLE,
S0118,2,arthralgia,N,1,40,41,NOT APPLICABLE,
S0118,3,neuropathy_-_sensory,N,1,58,59,NOT APPLICABLE,
S0118,4,hemoglobin_normal_12_16_gm,N,2,62,63,NOT APPLICABLE,
S0118,5,gastrointestinal,N,2,62,63,NOT APPLICABLE,
S0118,6,neutropenia,N,2,68,69,NOT APPLICABLE,
S0118,7,coughing,N,1,95,96,NOT APPLICABLE,
S0118,8,anemia,N,1,98,99,NOT APPLICABLE,
S0118,9,nausea,N,2,109,110,NOT APPLICABLE,
S0118,10,myalgia,N,2,112,113,NOT APPLICABLE,
S0118,11,fatigue,N,1,137,138,NOT APPLICABLE,
S0118,12,hyperkalemia,N,2,141,142,NOT APPLICABLE,
S0118,13,hypertriglyceridemia,N,1,143,144,NOT APPLICABLE,
S0118,14,vomiting,N,2,144,145,NOT APPLICABLE,
S0118,15,neutrophil_count_decreased,N,2,158,159,NOT APPLICABLE,
S0118,16,hypokalemia,N,1,165,166,NOT APPLICABLE,
S0118,17,muscle_weakness,N,2,182,189,NOT APPLICABLE,
S0118,18,hypocalcemia,N,1,186,193,NOT APPLICABLE,
S0118,19,platelets,N,1,191,198,NOT APPLICABLE,
S0118,20,constipation,N,2,195,202,NOT APPLICABLE,
S0119,1,coughing,N,1,9,10,NOT APPLICABLE,
S0119,2,myalgia,N,1,11,12,NOT APPLICABLE,
S0119,3,arthralgia,N,2,21,22,NOT APPLICABLE,
S0119,4,depression_dominant,N,1,23,24,NOT APPLICABLE,
S0119,5,catheter_related_infection,N,1,37,38,NOT APPLICABLE,
S0119,6,hypernatremia,N,1,40,41,NOT APPLICABLE,
S0119,7,gastrointestinal,N,2,74,75,NOT APPLICABLE,
S0119,8,hypoalbuminemia,N,2,74,75,NOT APPLICABLE,
S0119,9,leukocytes,N,2,76,77,NOT APPLICABLE,
S0119,10,fatigue,N,1,124,125,NOT APPLICABLE,
S0119,11,anorexia,N,2,126,127,NOT APPLICABLE,
S0119,12,hypocalcemia,N,1,169,176,NOT APPLICABLE,
S0119,13,seizures,N,1,178,185,NOT APPLICABLE,
S0119,14,neuropathy_-_motor,N,1,190,197,NOT APPLICABLE,
S0120,1,muscle_weakness,N,1,1,2,NOT APPLICABLE,
S0120,2,hypernatremia,N,2,10,11,NOT APPLICABLE,
S0120,3,neutropenia,N,1,12,13,NOT APPLICABLE,
S0120,4,anorexia,N,1,27,28,NOT APPLICABLE,
S0120,5,neuropathy_-_motor,N,1,51,52,NOT APPLICABLE,
S0120,6,hypocalcemia,N,2,52,53,NOT APPLICABLE,
S0120,7,neuropathy_-_sensory,N,2,54,55,NOT APPLICABLE,
S0120,8,nausea,N,1,70,71,NOT APPLICABLE,
S0120,9,anemia,N,2,72,73,NOT APPLICABLE,
S0120,10,peripheral_motor_neuropathy,N,1,79,80,NOT APPLICABLE,
S0120,11,thrombocytopenia,N,2,81,82,reduce_percent,DM008
S0120,12,fatigue,N,1,86,87,NOT APPLICABLE,
S0120,13,neutrophil_count_decreased,N,1,93,94,NOT APPLICABLE,
S0120,14,seizures,N,1,100,101,NOT APPLICABLE,
S0120,15,vomiting,N,2,105,106,NOT APPLICABLE,
S0120,16,platelets,N,2,112,113,NOT APPLICABLE,
S0120,17,catheter_related_infection,N,2,119,120,NOT APPLICABLE,
S0120,18,hemoglobin_normal_12_16_gm,N,2,138,139,NOT APPLICABLE,
S0120,19,myalgia,N,2,140,141,NOT APPLICABLE,
S0121,1,muscle_weakness,N,2,6,7,NOT APPLICABLE,
S0121,2,fatigue,N,2,16,17,NOT APPLICABLE,
S0121,3,dyspnea,N,1,31,32,NOT APPLICABLE,
S0121,4,neuropathy_-_sensory,N,2,53,54,NOT APPLICABLE,
S0121,5,hemoglobin_normal_12_16_gm,N,2,55,56,NOT APPLICABLE,
S0121,6,nausea,N,2,75,76,NOT APPLICABLE,
S0121,7,gastrointestinal,N,2,87,88,NOT APPLICABLE,
S0121,8,sweating,N,1,89,90,NOT APPLICABLE,
S0121,9,upper_respiratory_infections,N,1,107,108,NOT APPLICABLE,
S0121,10,dizziness,N,2,110,111,NOT APPLICABLE,
S0121,11,neutrophil_count_decreased,N,2,114,115,NOT APPLICABLE,
S0121,12,thrombocytopenia,N,2,147,148,reduce_percent,DM008
S0121,13,platelets,N,1,155,156,reduce_percent,DM008
S0121,14,white_blood_cell_count_decreased,Y,3,158,160,NOT APPLICABLE,
S0121,15,hypokalemia,N,2,182,189,NOT APPLICABLE,
S0121,16,vomiting,N,1,187,194,NOT APPLICABLE,
S0121,17,alanine_aminotransferase_increased,N,1,192,199,NOT APPLICABLE,
S0121,18,arthralgia,N,1,198,205,NOT APPLICABLE,
S0122,1,hypernatremia,N,1,2,3,NOT APPLICABLE,
S0122,2,dry_skin,N,2,4,5,NOT APPLICABLE,
S0122,3,hypercholesterolemia,N,2,8,9,NOT APPLICABLE,
S0122,4,sweating,N,2,19,20,NOT APPLICABLE,
S0122,5,anemia,N,1,23,24,NOT APPLICABLE,
S0122,6,alanine_aminotransferase_increased,N,2,25,26,NOT APPLICABLE,
S0122,7,hypocalcemia,N,1,35,36,NOT APPLICABLE,
S0122,8,vomiting,N,2,40,41,NOT APPLICABLE,
S0122,9,neuropathy_-_motor,N,1,46,47,NOT APPLICABLE,
S0122,10,seizures,N,1,50,51,NOT APPLICABLE,
S0122,11,coughing,N,2,56,57,NOT APPLICABLE,
S0122,12,rhinitis,N,1,60,61,NOT APPLICABLE,
S0122,13,hypokalemia,N,2,75,76,NOT APPLICABLE,
S0122,14,weight_loss,N,2,82,83,NOT APPLICABLE,
S0122,15,hyperglycemia,N,1,84,85,NOT APPLICABLE,
S0122,16,arthralgia,N,1,87,88,NOT APPLICABLE,
S0122,17,hydrocephalus,Y,3,88,90,NOT APPLICABLE,
S0122,18,leukocytes_(total_wbc),N,2,90,91,NOT APPLICABLE,
S0122,19,dyspnea,N,1,91,92,NOT APPLICABLE,
S0122,20,catheter_related_infection,N,1,92,93,NOT APPLICABLE,
S0122,21,seizures,Y,3,101,103,NOT APPLICABLE,
S0122,22,hypoalbuminemia,N,1,105,106,NOT APPLICABLE,
S0122,23,platelets,Y,3,107,109,reduce_percent,DM008
S0122,24,depression_dominant,N,2,110,111,NOT APPLICABLE,
S0122,25,hypophosphatemia,N,1,111,112,NOT APPLICABLE,
S0122,26,sensory_neuropathy,N,1,113,114,NOT APPLICABLE,
S0122,27,sleeplessness,N,2,115,116,NOT APPLICABLE,
S0122,28,nausea,N,2,121,122,NOT APPLICABLE,
S0122,29,muscle_weakness,N,2,126,127,NOT APPLICABLE,
S0122,30,anxiety,N,1,142,143,NOT APPLICABLE,
S0122,31,leukocytes,N,2,143,144,NOT APPLICABLE,
S0122,32,myalgia,N,2,147,148,NOT APPLICABLE,
S0122,33,blurred_vision,N,2,150,151,NOT APPLICABLE,
S0122,34,platelets,N,2,159,160,reduce_percent,DM008
S0122,35,constipation,N,1,159,160,NOT APPLICABLE,
S0122,36,gastrointestinal,N,1,159,160,NOT APPLICABLE,
S0122,37,anorexia,N,1,178,185,NOT APPLICABLE,
S0122,38,alopecia,N,1,181,188,NOT APPLICABLE,
S0122,39,diarrhea,N,1,182,189,NOT APPLICABLE,
S0122,40,headache,N,1,185,192,NOT APPLICABLE,
S0122,41,neutropenia,N,2,189,196,NOT APPLICABLE,
S0122,42,fatigue,N,1,190,197,NOT APPLICABLE,
S0122,43,hemoglobin_normal_12_16_gm,N,2,192,199,NOT APPLICABLE,
S0122,44,dizziness,N,1,193,200,NOT APPLICABLE,
S0122,45,fever,N,2,193,200,NOT APPLICABLE,
S0123,1,neutropenia,N,1,11,12,NOT APPLICABLE,
S0123,2,headache,N,2,17,18,NOT APPLICABLE,
S0123,3,dyspnea,N,2,19,20,NOT APPLICABLE,
S0123,4,neutrophils,N,2,51,52,NOT APPLICABLE,
S0123,5,coughing,N,1,52,53,NOT APPLICABLE,
S0123,6,decreased_platelet_count,N,1,52,53,reduce_percent,DM008
S0123,7,platelets,N,2,63,64,reduce_percent,DM008
S0123,8,hemoglobin_normal_12_16_gm,N,1,64,65,NOT APPLICABLE,
S0123,9,seizures,N,2,68,69,NOT APPLICABLE,
S0123,10,neuropathy-motor,N,1,71,72,NOT APPLICABLE,
S0123,11,muscle_weakness,N,2,71,72,NOT APPLICABLE,
S0123,12,fatigue,N,2,77,78,NOT APPLICABLE,
S0123,13,nausea,N,2,82,83,NOT APPLICABLE,
S0123,14,arthralgia,N,1,100,101,NOT APPLICABLE,
S0123,15,anorexia,N,1,113,114,NOT APPLICABLE,
S0123,16,constipation,N,1,119,120,NOT APPLICABLE,
S0123,17,thrombocytopenia,N,1,144,145,reduce_percent,DM008
S0123,18,rhinitis,N,1,149,150,NOT APPLICABLE,
S0123,19,neuropathy_-_sensory,N,1,154,155,NOT APPLICABLE,
S0123,20,hypocalcemia,N,1,155,156,NOT APPLICABLE,
S0123,21,alopecia,N,1,158,159,NOT APPLICABLE,
S0123,22,hypernatremia,N,1,166,167,NOT APPLICABLE,
S0123,23,neutrophil_count_decreased,N,1,172,179,NOT APPLICABLE,
S0123,24,hyperkalemia,N,1,178,185,NOT APPLICABLE,
S0123,25,catheter_related_infection,N,1,186,193,NOT APPLICABLE,
S0124,1,hypernatremia,N,1,6,7,NOT APPLICABLE,
S0124,2,leukocytes,N,2,9,10,NOT APPLICABLE,
S0124,3,myalgia,N,1,12,13,NOT APPLICABLE,
S0124,4,neuropathy_-_motor,N,1,38,39,NOT APPLICABLE,
S0124,5,hypoalbuminemia,N,1,43,44,NOT APPLICABLE,
S0124,6,alopecia,N,2,82,83,NOT APPLICABLE,
S0124,7,sensory_neuropathy,N,2,146,147,NOT APPLICABLE,
S0124,8,depression_dominant,N,1,149,150,NOT APPLICABLE,
S0124,9,catheter_related_infection,N,1,158,159,NOT APPLICABLE,
S0124,10,seizures,N,2,166,167,NOT APPLICABLE,
S0125,1,hemoglobin_normal_12_16_gm,N,1,7,8,NOT APPLICABLE,
S0125,2,neuropathy_-_sensory,N,1,8,9,NOT APPLICABLE,
S0125,3,hypokalemia,N,2,25,26,NOT APPLICABLE,
S0125,4,dizziness,N,2,49,50,NOT APPLICABLE,
S0125,5,dyspnea,N,1,51,52,NOT APPLICABLE,
S0125,6,platelets,N,2,53,54,reduce_percent,DM008
S0125,7,hypophosphatemia,N,2,55,56,NOT APPLICABLE,
S0125,8,catheter_related_infection,N,1,72,73,NOT APPLICABLE,
S0125,9,fatigue,N,2,87,88,NOT APPLICABLE,
S0125,10,neutropenia,N,2,100,101,NOT APPLICABLE,
S0125,11,coughing,N,2,105,106,NOT APPLICABLE,
S0125,12,upper_respiratory_infections,N,2,109,110,NOT APPLICABLE,
S0125,13,gastrointestinal,N,2,112,113,NOT APPLICABLE,
S0125,14,nausea,N,2,113,114,NOT APPLICABLE,
S0125,15,hypernatremia,N,1,116,117,NOT APPLICABLE,
S0125,16,muscle_weakness,N,1,130,131,NOT APPLICABLE,
S0125,17,hypokalemia,Y,3,139,141,NOT APPLICABLE,
S0125,18,hypertriglyceridemia,N,1,143,144,NOT APPLICABLE,
S0125,19,anxiety,N,1,143,144,NOT APPLICABLE,
S0125,20,alopecia,N,1,146,147,NOT APPLICABLE,
S0126,1,anorexia,N,1,3,4,NOT APPLICABLE,
S0126,2,myalgia,N,1,9,10,NOT APPLICABLE,
S0126,3,platelets,N,1,21,22,reduce_percent,DM008
S0126,4,upper_respiratory_infections,N,2,25,26,NOT APPLICABLE,
S0126,5,dyspnea,N,2,44,45,NOT APPLICABLE,
S0126,6,muscle_weakness,N,2,48,49,NOT APPLICABLE,
S0126,7,neutrophil_count_decreased,N,1,59,60,NOT APPLICABLE,
S0126,8,vomiting,N,2,79,80,NOT APPLICABLE,
S0126,9,fatigue,N,2,86,87,NOT APPLICABLE,
S0126,10,headache,N,1,86,87,NOT APPLICABLE,
S0126,11,sweating,N,1,88,89,NOT APPLICABLE,
S0126,12,nausea,N,1,101,102,NOT APPLICABLE,
S0126,13,neuropathy_-_sensory,N,1,108,109,NOT APPLICABLE,
S0126,14,hypokalemia,N,1,154,155,NOT APPLICABLE,
S0126,15,neutropenia,N,2,168,175,NOT APPLICABLE,
S0126,16,hemoglobin_normal_12_16_gm,N,1,176,183,NOT APPLICABLE,
S0126,17,seizures,N,1,179,186,NOT APPLICABLE,
S0127,1,neuropathy_-_motor,N,2,11,12,NOT APPLICABLE,
S0127,2,hypoalbuminemia,N,1,14,15,NOT APPLICABLE,
S0127,3,myalgia,N,2,138,139,NOT APPLICABLE,
S0127,4,catheter_related_infection,N,2,160,161,NOT APPLICABLE,
S0127,5,leukocytes,N,2,181,188,NOT APPLICABLE,
S0128,1,hemoglobin_normal_12_16_gm,N,2,13,14,NOT APPLICABLE,
S0128,2,coughing,N,1,20,21,NOT APPLICABLE,
S0128,3,hypocalcemia,N,1,23,24,NOT APPLICABLE,
S0128,4,sleeplessness,N,1,26,27,NOT APPLICABLE,
S0128,5,hemoglobin_normal_12_16_gm,Y,3,33,35,NOT APPLICABLE,
S0128,6,catheter_related_infection,N,2,41,42,NOT APPLICABLE,
S0128,7,neuropathy_-_motor,N,2,42,43,NOT APPLICABLE,
S0128,8,platelets,N,1,47,48,reduce_percent,DM008
S0128,9,sensory_neuropathy,N,2,47,48,NOT APPLICABLE,
S0128,10,constipation,N,1,71,72,NOT APPLICABLE,
S0128,11,gastrointestinal,N,1,81,82,NOT APPLICABLE,
S0128,12,diarrhea,N,2,84,85,NOT APPLICABLE,
S0128,13,hypernatremia,N,1,98,99,NOT APPLICABLE,
S0128,14,alopecia,N,2,109,110,NOT APPLICABLE,
S0128,15,dry_skin,N,2,114,115,NOT APPLICABLE,
S0128,16,dizziness,N,2,125,126,NOT APPLICABLE,
S0128,17,dyspnea,N,1,128,129,NOT APPLICABLE,
S0128,18,arthralgia,N,1,136,137,NOT APPLICABLE,
S0128,19,fatigue,N,1,137,138,NOT APPLICABLE,
S0128,20,seizures,N,1,151,152,NOT APPLICABLE,
S0128,21,leukocytes,N,1,164,165,NOT APPLICABLE,
S0128,22,hypoalbuminemia,N,2,166,167,NOT APPLICABLE,
S0128,23,depression_dominant,N,2,167,168,NOT APPLICABLE,
S0128,24,myalgia,N,2,168,175,NOT APPLICABLE,
S0129,1,platelets,N,1,5,6,reduce_percent,DM008
S0129,2,neuropathy_-_sensory,N,1,17,18,NOT APPLICABLE,
S0129,3,dizziness,N,2,37,38,NOT APPLICABLE,
S0129,4,dyspnea,N,2,62,63,NOT APPLICABLE,
S0129,5,blurred_vision,N,1,62,63,NOT APPLICABLE,
S0129,6,hyperkalemia,N,1,65,66,NOT APPLICABLE,
S0129,7,hemoglobin_normal_12_16_gm,N,1,69,70,NOT APPLICABLE,
S0129,8,neutropenia,N,2,73,74,NOT APPLICABLE,
S0129,9,muscle_weakness,N,2,86,87,NOT APPLICABLE,
S0129,10,thrombocytopenia,N,2,92,93,reduce_percent,DM008
S0129,11,seizures,N,1,110,111,NOT APPLICABLE,
S0129,12,fatigue,N,1,129,130,NOT APPLICABLE,
S0129,13,upper_respiratory_infections,N,2,129,130,NOT APPLICABLE,
S0129,14,neutrophil_count_decreased,N,2,147,148,NOT APPLICABLE,
S0129,15,hypernatremia,N,2,176,183,NOT APPLICABLE,
S0129,16,nausea,N,1,185,192,NOT APPLICABLE,
S0130,1,depression_dominant,N,2,23,24,NOT APPLICABLE,
S0130,2,leukocytes,N,2,36,37,NOT APPLICABLE,
S0130,3,neuropathy_-_motor,N,1,101,102,NOT APPLICABLE,
S0130,4,myalgia,N,2,104,105,NOT APPLICABLE,
S0131,1,hypocalcemia,N,1,24,25,NOT APPLICABLE,
S0131,2,neuropathy_-_motor,N,2,26,27,NOT APPLICABLE,
S0131,3,sensory_neuropathy,N,1,38,39,NOT APPLICABLE,
S0131,4,coughing,N,2,52,53,NOT APPLICABLE,
S0131,5,fatigue,N,1,55,56,NOT APPLICABLE,
S0131,6,catheter_related_infection,N,2,56,57,NOT APPLICABLE,
S0131,7,hypernatremia,N,2,56,57,NOT APPLICABLE,
S0131,8,alopecia,N,2,65,66,NOT APPLICABLE,
S0131,9,seizures,N,1,68,69,NOT APPLICABLE,
S0131,10,hemoglobin_normal_12_16_gm,N,1,96,97,NOT APPLICABLE,
S0131,11,seizures,Y,3,107,109,NOT APPLICABLE,
S0131,12,nausea,N,1,139,140,NOT APPLICABLE,
S0131,13,anorexia,N,2,149,150,NOT APPLICABLE,
S0131,14,sweating,N,1,150,151,NOT APPLICABLE,
S0131,15,dry_skin,N,2,154,155,NOT APPLICABLE,
S0131,16,blurred_vision,N,1,157,158,NOT APPLICABLE,
S0131,17,dyspnea,N,2,165,166,NOT APPLICABLE,
S0131,18,myalgia,N,2,167,168,NOT APPLICABLE,
S0131,19,anemia,N,1,167,168,NOT APPLICABLE,
S0131,20,platelets,Y,3,178,192,NOT APPLICABLE,
S0131,21,depression_dominant,N,2,182,189,NOT APPLICABLE,
S0131,22,leukocytes,N,2,188,195,NOT APPLICABLE,
S0131,23,hypoalbuminemia,N,1,188,195,NOT APPLICABLE,
S0131,24,arthralgia,N,2,190,197,NOT APPLICABLE,
S0132,1,alopecia,N,1,1,2,NOT APPLICABLE,
S0132,2,arthralgia,N,1,6,7,NOT APPLICABLE,
S0132,3,vomiting,N,2,7,8,NOT APPLICABLE,
S0132,4,blurred_vision,N,1,15,16,NOT APPLICABLE,
S0132,5,fever,N,2,16,17,NOT APPLICABLE,
S0132,6,sensory_neuropathy,N,1,18,19,NOT APPLICABLE,
S0132,7,neuropathy_-_motor,N,1,19,20,NOT APPLICABLE,
S0132,8,dizziness,N,1,19,20,NOT APPLICABLE,
S0132,9,depression_dominant,N,1,19,20,NOT APPLICABLE,
S0132,10,hypoalbuminemia,N,2,21,22,NOT APPLICABLE,
S0132,11,hypocalcemia,N,2,24,25,NOT APPLICABLE,
S0132,12,platelets,Y,3,25,27,reduce_percent,DM008
S0132,13,nausea,N,2,28,29,NOT APPLICABLE,
S0132,14,alanine_aminotransferase_increased,N,1,28,29,NOT APPLICABLE,
S0132,15,constipation,N,2,29,30,NOT APPLICABLE,
S0132,16,coughing,N,1,29,30,NOT APPLICABLE,
S0132,17,anemia,N,2,32,33,NOT APPLICABLE,
S0132,18,sleeplessness,N,2,35,36,NOT APPLICABLE,
S0132,19,hypophosphatemia,N,2,42,43,NOT APPLICABLE,
S0132,20,catheter_related_infection,N,2,43,44,NOT APPLICABLE,
S0132,21,dyspnea,N,2,43,44,NOT APPLICABLE,
S0132,22,myalgia,N,2,49,50,NOT APPLICABLE,
S0132,23,hemoglobin_normal_12_16_gm,N,1,50,51,NOT APPLICABLE,
S0132,24,hypernatremia,N,2,54,55,NOT APPLICABLE,
S0132,25,leukocytes,N,2,54,55,NOT APPLICABLE,
S0132,26,fatigue,N,1,68,69,NOT APPLICABLE,
S0132,27,anorexia,N,1,68,69,NOT APPLICABLE,
S0132,28,gastrointestinal,N,1,70,71,NOT APPLICABLE,
S0132,29,seizures,N,1,71,72,NOT APPLICABLE,
S0133,1,arthralgia,N,2,29,30,NOT APPLICABLE,
S0133,2,neutrophil_count_decreased,N,1,31,32,NOT APPLICABLE,
S0133,3,neutropenia,N,2,36,37,NOT APPLICABLE,
S0133,4,hypertriglyceridemia,N,1,44,45,NOT APPLICABLE,
S0133,5,hemoglobin_normal_12_16_gm,N,1,46,47,NOT APPLICABLE,
S0133,6,myalgia,N,2,52,53,NOT APPLICABLE,
S0133,7,nausea,N,1,58,59,NOT APPLICABLE,
S0133,8,rhinitis,N,1,68,69,NOT APPLICABLE,
S0133,9,sweating,N,2,90,91,NOT APPLICABLE,
S0133,10,hyperkalemia,N,1,93,94,NOT APPLICABLE,
S0133,11,muscle_weakness,N,1,99,100,NOT APPLICABLE,
S0133,12,hypocalcemia,N,2,103,104,NOT APPLICABLE,
S0133,13,neuropathy_-_sensory,N,2,119,120,NOT APPLICABLE,
S0133,14,headache,N,2,126,127,NOT APPLICABLE,
S0133,15,alanine_aminotransferase_increased,N,2,134,135,NOT APPLICABLE,
S0133,16,thrombosis/thrombus/embolism,Y,3,144,146,NOT APPLICABLE,
S0133,17,platelets,N,1,152,153,reduce_percent,DM008
S0133,18,dyspnea,N,1,161,162,NOT APPLICABLE,
S0133,19,sensory_neuropathy,N,1,172,179,NOT APPLICABLE,
S0133,20,catheter_related_infection,N,1,187,194,NOT APPLICABLE,
S0134,1,headache,N,2,5,6,NOT APPLICABLE,
S0134,2,platelets,N,1,14,15,reduce_percent,DM008
S0134,3,alopecia,N,2,27,28,NOT APPLICABLE,
S0134,4,anorexia,N,1,33,34,NOT APPLICABLE,
S0134,5,hypophosphatemia,N,1,38,39,NOT APPLICABLE,
S0134,6,hemoglobin_normal_12_16_gm,N,1,42,43,NOT APPLICABLE,
S0134,7,vomiting,N,1,44,45,NOT APPLICABLE,
S0134,8,platelets,Y,3,59,61,reduce_percent,DM008
S0134,9,hypokalemia,N,1,65,66,NOT APPLICABLE,
S0134,10,neuropathy_-_sensory,N,1,92,93,NOT APPLICABLE,
S0134,11,fatigue,N,2,92,93,NOT APPLICABLE,
S0134,12,nausea,N,2,103,104,NOT APPLICABLE,
S0134,13,neutropenia,N,2,130,131,NOT APPLICABLE,
S0134,14,depression_dominant,N,2,138,139,NOT APPLICABLE,
S0134,15,coughing,N,1,139,140,NOT APPLICABLE,
S0134,16,dyspnea,N,1,152,153,NOT APPLICABLE,
S0134,17,muscle_weakness,N,1,171,178,NOT APPLICABLE,
S0135,1,hypocalcemia,N,1,3,4,NOT APPLICABLE,
S0135,2,sensory_neuropathy,N,2,11,12,NOT APPLICABLE,
S0135,3,sleeplessness,N,2,16,17,NOT APPLICABLE,
S0135,4,seizures,N,1,17,18,NOT APPLICABLE,
S0135,5,alopecia,N,1,17,18,NOT APPLICABLE,
S0135,6,arthralgia,N,2,31,32,NOT APPLICABLE,
S0135,7,neuropathy_-_motor,N,2,38,39,NOT APPLICABLE,
S0135,8,seizures,Y,3,45,47,NOT APPLICABLE,
S0135,9,anorexia,N,1,47,48,NOT APPLICABLE,
S0135,10,hypoalbuminemia,N,2,48,49,NOT APPLICABLE,
S0135,11,myalgia,N,1,52,53,NOT APPLICABLE,
S0135,12,depression_dominant,N,2,54,55,NOT APPLICABLE,
S0135,13,leukocytes,N,2,60,61,NOT APPLICABLE,
S0135,14,nausea,N,1,65,66,NOT APPLICABLE,
S0135,15,catheter_related_infection,N,2,73,74,NOT APPLICABLE,
S0135,16,hypernatremia,N,2,76,77,NOT APPLICABLE,
S0135,17,platelets,N,1,83,84,reduce_percent,DM008
S0135,18,blurred_vision,N,1,85,86,NOT APPLICABLE,
S0135,19,fatigue,N,1,96,97,NOT APPLICABLE,
S0135,20,coughing,N,2,99,100,NOT APPLICABLE,
S0135,21,dyspnea,N,2,109,110,NOT APPLICABLE,
S0136,1,hypernatremia,N,1,15,16,NOT APPLICABLE,
S0136,2,alanine_aminotransferase_increased,N,1,34,35,NOT APPLICABLE,
S0136,3,hemoglobin_normal_12_16_gm,N,2,36,37,NOT APPLICABLE,
S0136,4,neutrophils,N,2,40,41,NOT APPLICABLE,
S0136,5,hypophosphatemia,N,2,48,49,NOT APPLICABLE,
S0136,6,sweating,N,1,69,70,NOT APPLICABLE,
S0136,7,platelets,N,1,73,74,reduce_percent,DM008
S0136,8,fatigue,N,1,76,77,NOT APPLICABLE,
S0136,9,nausea,N,1,84,85,NOT APPLICABLE,
S0136,10,constipation,N,1,86,87,NOT APPLICABLE,
S0136,11,arthralgia,N,1,88,89,NOT APPLICABLE,
S0136,12,stomatitis,N,2,107,108,NOT APPLICABLE,
S0136,13,neutropenia,N,2,109,110,NOT APPLICABLE,
S0136,14,anorexia,N,2,113,114,NOT APPLICABLE,
S0136,15,fever,N,1,115,116,NOT APPLICABLE,
S0136,16,neuropathy_-_sensory,N,2,116,117,NOT APPLICABLE,
S0136,17,dry_skin,N,1,116,117,NOT APPLICABLE,
S0136,18,decreased_platelet_count,N,2,119,120,reduce_percent,DM008
S0136,19,anemia,N,1,125,126,NOT APPLICABLE,
S0136,20,thrombocytopenia,N,2,129,130,reduce_percent,DM008
S0136,21,upper_respiratory_infections,N,2,146,147,NOT APPLICABLE,
S0136,22,headache,N,1,148,149,NOT APPLICABLE,
S0136,23,neutrophil_count_decreased,N,1,151,152,NOT APPLICABLE,
S0136,24,gastrointestinal,N,1,159,160,NOT APPLICABLE,
S0136,25,hypokalemia,N,2,177,184,NOT APPLICABLE,
S0136,26,neuropathy-motor,N,2,182,189,NOT APPLICABLE,
S0136,27,muscle_weakness,N,1,190,197,NOT APPLICABLE,
S0136,28,dyspnea,N,2,190,197,NOT APPLICABLE,
S0137,1,neuropathy_-_sensory,N,2,2,3,NOT APPLICABLE,
S0137,2,hypertriglyceridemia,N,2,3,4,NOT APPLICABLE,
S0137,3,neutrophils,N,1,6,7,NOT APPLICABLE,
S0137,4,neuropathy-motor,N,1,7,8,NOT APPLICABLE,
S0137,5,platelets,N,1,10,11,reduce_percent,DM008
S0137,6,neutropenia,N,1,11,12,NOT APPLICABLE,
S0137,7,decreased_platelet_count,N,1,11,12,reduce_percent,DM008
S0137,8,constipation,N,1,19,20,NOT APPLICABLE,
S0137,9,neutrophil_count_decreased,N,1,21,22,NOT APPLICABLE,
S0137,10,myalgia,N,1,22,23,NOT APPLICABLE,
S0137,11,hemoglobin_normal_12_16_gm,N,1,24,25,NOT APPLICABLE,
S0137,12,peripheral_motor_neuropathy,N,2,27,28,NOT APPLICABLE,
S0137,13,thrombosis/thrombus/embolism,Y,3,28,30,NOT APPLICABLE,
S0137,14,anemia,N,1,29,30,NOT APPLICABLE,
S0137,15,thrombocytopenia,N,2,30,31,NOT APPLICABLE,
S0137,16,muscle_weakness,N,1,34,35,NOT APPLICABLE,
S0137,17,hyperkalemia,N,2,36,37,NOT APPLICABLE,
S0137,18,nausea,N,2,39,40,NOT APPLICABLE,
S0137,19,anorexia,N,2,40,41,NOT APPLICABLE,
S0137,20,fatigue,N,2,42,43,NOT APPLICABLE,
S0137,21,catheter_related_infection,N,2,46,47,NOT APPLICABLE,
S0137,22,platelets,Y,3,47,49,NOT APPLICABLE,
S0138,1,neuropathy_-_motor,N,1,44,45,NOT APPLICABLE,
S0138,2,hypernatremia,N,1,68,69,NOT APPLICABLE,
S0138,3,hypoalbuminemia,N,1,103,104,NOT APPLICABLE,
S0138,4,leukocytes,N,1,130,131,NOT APPLICABLE,
S0138,5,myalgia,N,1,141,142,NOT APPLICABLE,
S0138,6,depression_dominant,N,2,184,191,NOT APPLICABLE,
S0138,7,anorexia,N,2,198,205,NOT APPLICABLE,
S0139,1,gastrointestinal,N,1,3,4,NOT APPLICABLE,
S0139,2,myalgia,N,1,6,7,NOT APPLICABLE,
S0139,3,rash_erythematous_macules_or_papules,N,1,10,11,NOT APPLICABLE,
S0139,4,catheter_related_infection,N,2,12,13,NOT APPLICABLE,
S0139,5,dizziness,N,1,21,22,NOT APPLICABLE,
S0139,6,anorexia,N,2,27,28,NOT APPLICABLE,
S0139,7,sweating,N,1,27,28,NOT APPLICABLE,
S0139,8,sensory_neuropathy,N,1,32,33,NOT APPLICABLE,
S0139,9,constipation,N,2,40,41,NOT APPLICABLE,
S0139,10,neutropenia,N,1,55,56,NOT APPLICABLE,
S0139,11,seizures,N,1,68,69,NOT APPLICABLE,
S0139,12,hemoglobin_normal_12_16_gm,N,1,77,78,NOT APPLICABLE,
S0139,13,dyspnea,N,2,82,83,NOT APPLICABLE,
S0139,14,arthralgia,N,2,95,96,NOT APPLICABLE,
S0139,15,neuropathy_-_motor,N,1,112,113,NOT APPLICABLE,
S0139,16,hypocalcemia,N,1,112,113,NOT APPLICABLE,
S0139,17,fatigue,N,1,120,121,NOT APPLICABLE,
S0139,18,hypoalbuminemia,N,2,120,121,NOT APPLICABLE,
S0139,19,coughing,N,2,129,130,NOT APPLICABLE,
S0139,20,depression_dominant,N,2,130,131,NOT APPLICABLE,
S0139,21,alopecia,N,2,131,132,NOT APPLICABLE,
S0139,22,leukocytes_(total_wbc),N,1,131,132,NOT APPLICABLE,
S0139,23,blurred_vision,N,1,132,133,NOT APPLICABLE,
S0139,24,fever,N,1,135,136,NOT APPLICABLE,
S0139,25,neutrophils,Y,3,140,142,NOT APPLICABLE,
S0139,26,hypernatremia,N,1,146,147,NOT APPLICABLE,
S0139,27,sleeplessness,N,2,147,148,NOT APPLICABLE,
S0139,28,headache,N,2,148,149,NOT APPLICABLE,
S0139,29,anxiety,N,1,151,152,NOT APPLICABLE,
S0139,30,platelets,N,2,155,156,reduce_percent,DM008
S0139,31,nausea,N,2,183,190,NOT APPLICABLE,
S0139,32,hypophosphatemia,N,2,189,196,NOT APPLICABLE,
S0139,33,leukocytes,N,1,191,198,NOT APPLICABLE,
S0140,1,upper_respiratory_infections,N,1,3,4,NOT APPLICABLE,
S0140,2,thrombosis,Y,3,53,55,NOT APPLICABLE,
S0140,3,neuropathy-motor,N,2,77,78,NOT APPLICABLE,
S0140,4,constipation,N,1,80,81,NOT APPLICABLE,
S0140,5,peripheral_motor_neuropathy,N,2,84,85,NOT APPLICABLE,
S0140,6,arthralgia,N,1,91,92,NOT APPLICABLE,
S0140,7,alopecia,N,2,110,111,NOT APPLICABLE,
S0140,8,vomiting,N,2,116,117,NOT APPLICABLE,
S0140,9,neuropathy_-_sensory,N,2,122,123,NOT APPLICABLE,
S0140,10,muscle_weakness,N,1,127,128,NOT APPLICABLE,
S0140,11,neutropenia,N,2,146,147,NOT APPLICABLE,
S0140,12,fatigue,N,2,162,163,NOT APPLICABLE,
S0140,13,hypocalcemia,N,1,167,168,NOT APPLICABLE,
S0140,14,dizziness,N,1,168,175,NOT APPLICABLE,
S0140,15,dyspnea,N,2,172,179,NOT APPLICABLE,
S0140,16,sweating,N,2,175,182,NOT APPLICABLE,
S0140,17,neutrophil_count_decreased,N,1,176,183,NOT APPLICABLE,
S0140,18,neuropathy_-_motor,N,1,177,184,NOT APPLICABLE,
S0140,19,platelets,N,2,179,186,NOT APPLICABLE,
S0140,20,headache,N,2,196,203,NOT APPLICABLE,
S0141,1,rhinitis,N,2,14,15,NOT APPLICABLE,
S0141,2,hemoglobin_normal_12_16_gm,N,2,15,16,NOT APPLICABLE,
S0141,3,vomiting,N,2,25,26,NOT APPLICABLE,
S0141,4,sleeplessness,N,2,32,33,NOT APPLICABLE,
S0141,5,nausea,N,2,37,38,NOT APPLICABLE,
S0141,6,hypocalcemia,N,2,90,91,NOT APPLICABLE,
S0141,7,muscle_weakness,N,2,97,98,NOT APPLICABLE,
S0141,8,coughing,N,2,116,117,NOT APPLICABLE,
S0141,9,decreased_platelet_count,N,2,122,123,reduce_percent,DM008
S0141,10,neutropenia,N,1,126,127,NOT APPLICABLE,
S0141,11,fatigue,N,1,140,141,NOT APPLICABLE,
S0141,12,anorexia,N,1,155,156,NOT APPLICABLE,
S0141,13,platelets,N,1,159,160,reduce_percent,DM008
S0141,14,neutrophil_count_decreased,N,2,166,167,NOT APPLICABLE,
S0141,15,thrombocytopenia,N,1,188,195,NOT APPLICABLE,
S0141,16,neuropathy_-_sensory,N,2,192,199,NOT APPLICABLE,
S0142,1,myalgia,N,1,74,75,NOT APPLICABLE,
S0142,2,seizures,N,2,75,76,NOT APPLICABLE,
S0142,3,neuropathy_-_motor,N,2,111,112,NOT APPLICABLE,
S0142,4,hypoalbuminemia,N,2,121,122,NOT APPLICABLE,
S0142,5,depression_dominant,N,1,136,137,NOT APPLICABLE,
S0142,6,leukocytes,N,2,156,157,NOT APPLICABLE,
S0142,7,hypernatremia,N,2,190,197,NOT APPLICABLE,
S0143,1,nausea,N,2,4,5,NOT APPLICABLE,
S0143,2,fever,N,2,16,17,NOT APPLICABLE,
S0143,3,thrombocytopenia,N,2,40,41,reduce_percent,DM008
S0143,4,upper_respiratory_infections,N,2,64,65,NOT APPLICABLE,
S0143,5,neutropenia,N,2,67,68,NOT APPLICABLE,
S0143,6,dizziness,N,2,74,75,NOT APPLICABLE,
S0143,7,seizures,N,2,80,81,NOT APPLICABLE,
S0143,8,muscle_weakness,N,1,86,87,NOT APPLICABLE,
S0143,9,sensory_neuropathy,N,1,92,93,NOT APPLICABLE,
S0143,10,anorexia,N,2,97,98,NOT APPLICABLE,
S0143,11,platelets,N,2,125,126,reduce_percent,DM008
S0143,12,catheter_related_infection,N,1,138,139,NOT APPLICABLE,
S0143,13,neutrophil_count_decreased,N,1,146,147,NOT APPLICABLE,
S0143,14,neuropathy_-_sensory,N,2,148,149,NOT APPLICABLE,
S0143,15,peripheral_motor_neuropathy,N,1,182,189,NOT APPLICABLE,
S0143,16,gastrointestinal,N,1,183,190,NOT APPLICABLE,
S0143,17,vomiting,N,2,184,191,NOT APPLICABLE,
S0143,18,fatigue,N,2,190,197,NOT APPLICABLE,
S0143,19,neuropathy_-_motor,N,1,194,201,NOT APPLICABLE,
S0144,1,headache,N,2,1,2,NOT APPLICABLE,
S0144,2,catheter_related_infection,N,2,6,7,NOT APPLICABLE,
S0144,3,nausea,N,2,9,10,NOT APPLICABLE,
S0144,4,anorexia,N,2,39,40,NOT APPLICABLE,
S0144,5,sensory_neuropathy,N,2,39,40,NOT APPLICABLE,
S0144,6,coughing,N,2,41,42,NOT APPLICABLE,
S0144,7,platelets,N,1,44,45,reduce_percent,DM008
S0144,8,seizures,N,1,46,47,NOT APPLICABLE,
S0144,9,hypoalbuminemia,N,1,51,52,NOT APPLICABLE,
S0144,10,hypophosphatemia,N,1,52,53,NOT APPLICABLE,
S0144,11,arthralgia,N,2,56,57,NOT APPLICABLE,
S0144,12,depression_dominant,N,1,75,76,NOT APPLICABLE,
S0144,13,dizziness,N,2,79,80,NOT APPLICABLE,
S0144,14,alopecia,N,1,84,85,NOT APPLICABLE,
S0144,15,blurred_vision,N,1,100,101,NOT APPLICABLE,
S0144,16,sweating,N,2,109,110,NOT APPLICABLE,
S0144,17,hypernatremia,N,1,114,115,NOT APPLICABLE,
S0144,18,neuropathy_-_motor,N,2,122,123,NOT APPLICABLE,
S0144,19,hypocalcemia,N,1,128,129,NOT APPLICABLE,
S0144,20,myalgia,N,1,137,138,NOT APPLICABLE,
S0144,21,leukocytes,N,1,139,140,NOT APPLICABLE,
S0144,22,neutropenia,N,1,155,156,NOT APPLICABLE,
S0144,23,fatigue,N,1,178,185,NOT APPLICABLE,
S0144,24,anemia,N,1,179,186,NOT APPLICABLE,
S0145,1,leukocytes,N,2,1,2,NOT APPLICABLE,
S0145,2,neuropathy_-_motor,N,1,19,20,NOT APPLICABLE,
S0145,3,alopecia,N,1,20,21,NOT APPLICABLE,
S0145,4,anorexia,N,1,23,24,NOT APPLICABLE,
S0145,5,coughing,N,1,23,24,NOT APPLICABLE,
S0145,6,sweating,N,2,42,43,NOT APPLICABLE,
S0145,7,hemoglobin_normal_12_16_gm,N,1,45,46,NOT APPLICABLE,
S0145,8,sensory_neuropathy,N,1,64,65,NOT APPLICABLE,
S0145,9,seizures,N,1,90,91,NOT APPLICABLE,
S0145,10,catheter_related_infection,N,2,119,120,NOT APPLICABLE,
S0145,11,hypernatremia,N,2,127,128,NOT APPLICABLE,
S0145,12,hypoalbuminemia,N,1,133,134,NOT APPLICABLE,
S0145,13,depression_dominant,N,2,134,135,NOT APPLICABLE,
S0145,14,hypophosphatemia,N,1,142,143,NOT APPLICABLE,
S0145,15,sleeplessness,N,1,162,163,NOT APPLICABLE,
S0145,16,hypocalcemia,N,2,173,180,NOT APPLICABLE,
S0145,17,myalgia,N,1,195,202,NOT APPLICABLE,
S0146,1,fatigue,N,2,17,18,NOT APPLICABLE,
S0146,2,blurred_vision,N,2,26,27,NOT APPLICABLE,
S0146,3,depression_dominant,N,2,54,55,NOT APPLICABLE,
S0146,4,hypoalbuminemia,N,1,61,62,NOT APPLICABLE,
S0146,5,alopecia,N,1,69,70,NOT APPLICABLE,
S0146,6,arthralgia,N,1,116,117,NOT APPLICABLE,
S0146,7,coughing,N,1,121,122,NOT APPLICABLE,
S0146,8,hypernatremia,N,2,126,127,NOT APPLICABLE,
S0146,9,myalgia,N,2,133,134,NOT APPLICABLE,
S0146,10,neuropathy_-_motor,N,1,137,138,NOT APPLICABLE,
S0146,11,catheter_related_infection,N,1,144,145,NOT APPLICABLE,
S0146,12,hypocalcemia,N,2,155,156,NOT APPLICABLE,
S0146,13,platelets,N,1,156,157,reduce_percent,DM008
S0146,14,constipation,N,1,159,160,NOT APPLICABLE,
S0146,15,leukocytes,N,1,165,166,NOT APPLICABLE,
S0146,16,seizures,N,1,178,185,NOT APPLICABLE,
S0146,17,anorexia,N,1,188,195,NOT APPLICABLE,
S0147,1,catheter_related_infection,N,1,23,24,NOT APPLICABLE,
S0147,2,arthralgia,N,2,63,64,NOT APPLICABLE,
S0147,3,hypernatremia,N,1,70,71,NOT APPLICABLE,
S0147,4,leukocytes,N,1,91,92,NOT APPLICABLE,
S0147,5,seizures,N,1,96,97,NOT APPLICABLE,
S0147,6,constipation,N,1,100,101,NOT APPLICABLE,
S0147,7,alopecia,N,1,110,111,NOT APPLICABLE,
S0147,8,neuropathy_-_motor,N,1,110,111,NOT APPLICABLE,
S0147,9,platelets,N,1,115,116,reduce_percent,DM008
S0147,10,depression_dominant,N,2,144,145,NOT APPLICABLE,
S0147,11,hypocalcemia,N,2,151,152,NOT APPLICABLE,
S0147,12,fever,N,1,160,161,NOT APPLICABLE,
S0147,13,hypoalbuminemia,N,1,169,176,NOT APPLICABLE,
S0147,14,gastrointestinal,N,2,173,180,NOT APPLICABLE,
S0147,15,myalgia,N,2,174,181,NOT APPLICABLE,
S0147,16,coughing,N,1,178,185,NOT APPLICABLE,
S0147,17,sensory_neuropathy,N,1,192,199,NOT APPLICABLE,
S0148,1,anorexia,N,1,1,2,NOT APPLICABLE,
S0148,2,stomatitis,N,1,1,2,NOT APPLICABLE,
S0148,3,gastrointestinal,N,1,5,6,NOT APPLICABLE,
S0148,4,neutrophils,N,1,5,6,NOT APPLICABLE,
S0148,5,catheter_related_infection,N,2,7,8,NOT APPLICABLE,
S0148,6,rhinitis,N,2,10,11,NOT APPLICABLE,
S0148,7,fatigue,N,1,20,21,NOT APPLICABLE,
S0148,8,neutropenia,N,2,20,21,NOT APPLICABLE,
S0148,9,platelets,N,1,22,23,reduce_percent,DM008
S0148,10,neuropathy_-_motor,N,2,22,23,NOT APPLICABLE,
S0148,11,neutrophil_count_decreased,N,1,22,23,NOT APPLICABLE,
S0148,12,dizziness,N,2,26,27,NOT APPLICABLE,
S0148,13,hypertriglyceridemia,N,1,30,31,NOT APPLICABLE,
S0148,14,decreased_platelet_count,N,2,36,37,NOT APPLICABLE,
S0148,15,nausea,N,2,40,41,NOT APPLICABLE,
S0148,16,sleeplessness,N,2,44,45,NOT APPLICABLE,
S0148,17,neuropathy-motor,N,2,45,46,NOT APPLICABLE,
S0148,18,hemoglobin_normal_12_16_gm,N,2,45,46,NOT APPLICABLE,
S0148,19,peripheral_motor_neuropathy,N,1,48,49,NOT APPLICABLE,
S0148,20,neuropathy_-_sensory,N,1,49,50,NOT APPLICABLE,
S0148,21,muscle_weakness,N,2,49,50,NOT APPLICABLE,
S0148,22,vomiting,N,1,56,57,NOT APPLICABLE,
S0149,1,hypoalbuminemia,N,2,12,13,NOT APPLICABLE,
S0149,2,anorexia,N,1,24,25,NOT APPLICABLE,
S0149,3,depression_dominant,N,2,27,28,NOT APPLICABLE,
S0149,4,blurred_vision,N,1,34,35,NOT APPLICABLE,
S0149,5,catheter_related_infection,N,1,39,40,NOT APPLICABLE,
S0149,6,fatigue,N,1,51,52,NOT APPLICABLE,
S0149,7,leukocytes,N,1,52,53,NOT APPLICABLE,
S0149,8,arthralgia,N,1,61,62,NOT APPLICABLE,
S0149,9,neuropathy_-_motor,N,2,64,65,NOT APPLICABLE,
S0149,10,sleeplessness,N,2,74,75,NOT APPLICABLE,
S0149,11,hypernatremia,N,2,78,79,NOT APPLICABLE,
S0149,12,dyspnea,N,2,80,81,NOT APPLICABLE,
S0149,13,hypocalcemia,N,1,83,84,NOT APPLICABLE,
S0149,14,constipation,N,2,84,85,NOT APPLICABLE,
S0149,15,dizziness,N,2,91,92,NOT APPLICABLE,
S0149,16,neutrophils,Y,3,99,101,NOT APPLICABLE,
S0149,17,gastrointestinal,N,2,104,105,NOT APPLICABLE,
S0149,18,seizures,N,1,106,107,NOT APPLICABLE,
S0149,19,alopecia,N,1,110,111,NOT APPLICABLE,
S0149,20,nausea,N,2,113,114,NOT APPLICABLE,
S0149,21,coughing,N,1,114,115,NOT APPLICABLE,
S0149,22,myalgia,N,1,119,120,NOT APPLICABLE,
S0149,23,alanine_aminotransferase_increased,N,1,123,124,NOT APPLICABLE,
S0149,24,sensory_neuropathy,N,2,130,131,NOT APPLICABLE,
S0149,25,neutropenia,N,2,150,151,NOT APPLICABLE,
S0150,1,muscle_weakness,N,1,15,16,NOT APPLICABLE,
S0150,2,vomiting,N,1,28,29,NOT APPLICABLE,
S0150,3,platelets,N,1,42,43,reduce_percent,DM008
S0150,4,anemia,N,2,51,52,NOT APPLICABLE,
S0150,5,fatigue,N,2,53,54,NOT APPLICABLE,
S0150,6,neutropenia,N,2,64,65,NOT APPLICABLE,
S0150,7,neuropathy_-_motor,N,1,73,74,NOT APPLICABLE,
S0150,8,hemoglobin_normal_12_16_gm,N,1,92,93,NOT APPLICABLE,
S0150,9,coughing,N,2,93,94,NOT APPLICABLE,
S0150,10,hypernatremia,N,1,96,97,NOT APPLICABLE,
S0150,11,anxiety,N,2,103,104,NOT APPLICABLE,
S0150,12,neuropathy_-_sensory,N,2,105,106,NOT APPLICABLE,
S0150,13,neutrophil_count_decreased,N,2,119,120,NOT APPLICABLE,
S0150,14,nausea,N,2,158,159,NOT APPLICABLE,
S0150,15,dyspnea,N,1,176,183,NOT APPLICABLE,
S0150,16,platelets,Y,3,176,190,NOT APPLICABLE,
S0150,17,thrombocytopenia,N,2,177,184,NOT APPLICABLE,
S0151,1,seizures,N,1,2,3,NOT APPLICABLE,
S0151,2,sensory_neuropathy,N,2,18,19,NOT APPLICABLE,
S0151,3,dry_skin,N,2,28,29,NOT APPLICABLE,
S0151,4,hypoalbuminemia,N,1,30,31,NOT APPLICABLE,
S0151,5,dyspnea,N,1,32,33,NOT APPLICABLE,
S0151,6,hemoglobin_normal_12_16_gm,N,1,44,45,NOT APPLICABLE,
S0151,7,myalgia,N,1,50,51,NOT APPLICABLE,
S0151,8,alopecia,N,2,58,59,NOT APPLICABLE,
S0151,9,coughing,N,2,79,80,NOT APPLICABLE,
S0151,10,arthralgia,N,1,86,87,NOT APPLICABLE,
S0151,11,neuropathy_-_motor,N,2,99,100,NOT APPLICABLE,
S0151,12,gastrointestinal,N,1,101,102,NOT APPLICABLE,
S0151,13,hypernatremia,N,1,117,118,NOT APPLICABLE,
S0151,14,leukocytes,N,2,118,119,NOT APPLICABLE,
S0151,15,anorexia,N,1,128,129,NOT APPLICABLE,
S0151,16,depression_dominant,N,2,166,167,NOT APPLICABLE,
S0151,17,catheter_related_infection,N,1,188,195,NOT APPLICABLE,
S0151,18,hypocalcemia,N,1,193,200,NOT APPLICABLE,
S0151,19,neutropenia,N,2,198,205,NOT APPLICABLE,
S0152,1,hypocalcemia,N,1,15,16,NOT APPLICABLE,
S0152,2,myalgia,N,1,27,28,NOT APPLICABLE,
S0152,3,platelets,N,2,29,30,reduce_percent,DM008
S0152,4,neuropathy_-_motor,N,1,37,38,NOT APPLICABLE,
S0152,5,constipation,N,2,49,50,NOT APPLICABLE,
S0152,6,catheter_related_infection,N,1,72,73,NOT APPLICABLE,
S0152,7,depression_dominant,N,1,80,81,NOT APPLICABLE,
S0152,8,coughing,N,2,102,103,NOT APPLICABLE,
S0152,9,sensory_neuropathy,N,1,111,112,NOT APPLICABLE,
S0152,10,dyspnea,N,1,116,117,NOT APPLICABLE,
S0152,11,leukocytes,N,2,124,125,NOT APPLICABLE,
S0152,12,hypernatremia,N,2,128,129,NOT APPLICABLE,
S0152,13,hypoalbuminemia,N,2,158,159,NOT APPLICABLE,
S0153,1,neuropathy_-_sensory,N,2,3,4,NOT APPLICABLE,
S0153,2,platelets,N,2,3,4,reduce_percent,DM008
S0153,3,coughing,N,1,4,5,NOT APPLICABLE,
S0153,4,nausea,N,2,7,8,NOT APPLICABLE,
S0153,5,myalgia,N,1,8,9,NOT APPLICABLE,
S0153,6,peripheral_motor_neuropathy,N,1,9,10,NOT APPLICABLE,
S0153,7,hypernatremia,N,2,10,11,NOT APPLICABLE,
S0153,8,neutropenia,N,2,11,12,NOT APPLICABLE,
S0153,9,hemoglobin_normal_12_16_gm,N,1,22,23,NOT APPLICABLE,
S0153,10,dizziness,N,2,25,26,NOT APPLICABLE,
S0153,11,neutrophil_count_decreased,N,2,27,28,NOT APPLICABLE,
S0153,12,platelets,Y,3,38,40,NOT APPLICABLE,
S0153,13,muscle_weakness,N,2,45,46,NOT APPLICABLE,
S0153,14,fatigue,N,1,46,47,NOT APPLICABLE,
S0153,15,thrombocytopenia,N,1,49,50,NOT APPLICABLE,
S0153,16,sweating,N,2,50,51,NOT APPLICABLE,
S0153,17,dyspnea,N,1,52,53,NOT APPLICABLE,
S0153,18,thrombosis/thrombus/embolism,Y,3,61,63,NOT APPLICABLE,
S0154,1,hemoglobin_normal_12_16_gm,N,2,15,16,NOT APPLICABLE,
S0154,2,vomiting,N,1,16,17,NOT APPLICABLE,
S0154,3,neutropenia,N,2,19,20,NOT APPLICABLE,
S0154,4,coughing,N,2,33,34,NOT APPLICABLE,
S0154,5,thrombocytopenia,N,1,40,41,reduce_percent,DM008
S0154,6,anxiety,N,2,48,49,NOT APPLICABLE,
S0154,7,arthralgia,N,2,70,71,NOT APPLICABLE,
S0154,8,myalgia,N,2,85,86,NOT APPLICABLE,
S0154,9,catheter_related_infection,N,1,90,91,NOT APPLICABLE,
S0154,10,anorexia,N,1,93,94,NOT APPLICABLE,
S0154,11,seizures,N,1,94,95,NOT APPLICABLE,
S0154,12,neuropathy_-_sensory,N,2,98,99,NOT APPLICABLE,
S0154,13,dyspnea,N,1,107,108,NOT APPLICABLE,
S0154,14,fever,N,1,107,108,NOT APPLICABLE,
S0154,15,hypernatremia,N,1,121,122,NOT APPLICABLE,
S0154,16,neutrophil_count_decreased,N,2,139,140,NOT APPLICABLE,
S0154,17,neuropathy_-_motor,N,2,142,143,NOT APPLICABLE,
S0154,18,fatigue,N,1,148,149,NOT APPLICABLE,
S0154,19,muscle_weakness,N,1,150,151,NOT APPLICABLE,
S0154,20,nausea,N,2,175,182,NOT APPLICABLE,
S0155,1,depression_dominant,N,1,1,2,NOT APPLICABLE,
S0155,2,leukocytes,N,2,1,2,NOT APPLICABLE,
S0155,3,sensory_neuropathy,N,1,7,8,NOT APPLICABLE,
S0155,4,hypernatremia,N,1,13,14,NOT APPLICABLE,
S0155,5,alopecia,N,1,18,19,NOT APPLICABLE,
S0155,6,arthralgia,N,2,21,22,NOT APPLICABLE,
S0155,7,fatigue,N,1,26,27,NOT APPLICABLE,
S0155,8,hypoalbuminemia,N,1,26,27,NOT APPLICABLE,
S0155,9,neuropathy_-_motor,N,2,28,29,NOT APPLICABLE,
S0155,10,coughing,N,1,37,38,NOT APPLICABLE,
S0155,11,constipation,N,2,39,40,NOT APPLICABLE,
S0155,12,hemoglobin_normal_12_16_gm,N,1,39,40,NOT APPLICABLE,
S0155,13,blurred_vision,N,1,40,41,NOT APPLICABLE,
S0155,14,hypocalcemia,N,2,41,42,NOT APPLICABLE,
S0155,15,sleeplessness,N,2,43,44,NOT APPLICABLE,
S0155,16,anorexia,N,1,44,45,NOT APPLICABLE,
S0155,17,seizures,N,2,45,46,NOT APPLICABLE,
S0155,18,myalgia,N,1,47,48,NOT APPLICABLE,
S0155,19,catheter_related_infection,N,2,48,49,NOT APPLICABLE,
S0155,20,leukocytes_(total_wbc),N,1,49,50,NOT APPLICABLE,
S0156,1,leukocytes,N,1,27,28,NOT APPLICABLE,
S0156,2,hypernatremia,N,1,46,47,NOT APPLICABLE,
S0156,3,depression_dominant,N,1,47,48,NOT APPLICABLE,
S0156,4,myalgia,N,2,59,60,NOT APPLICABLE,
S0156,5,neuropathy_-_motor,N,1,85,86,NOT APPLICABLE,
S0156,6,blurred_vision,N,2,90,91,NOT APPLICABLE,
S0156,7,hypoalbuminemia,N,1,96,97,NOT APPLICABLE,
S0156,8,hypocalcemia,N,2,123,124,NOT APPLICABLE,
S0156,9,hypophosphatemia,N,2,132,133,NOT APPLICABLE,
S0156,10,sensory_neuropathy,N,1,137,138,NOT APPLICABLE,
S0156,11,alopecia,N,1,144,145,NOT APPLICABLE,
S0156,12,dyspnea,N,2,151,152,NOT APPLICABLE,
S0156,13,anorexia,N,1,153,154,NOT APPLICABLE,
S0156,14,neutropenia,N,2,174,181,NOT APPLICABLE,
S0156,15,seizures,N,1,175,182,NOT APPLICABLE,
S0156,16,fatigue,N,2,180,187,NOT APPLICABLE,
S0156,17,hemoglobin_normal_12_16_gm,N,1,183,190,NOT APPLICABLE,
S0156,18,catheter_related_infection,N,2,193,200,NOT APPLICABLE,
S0157,1,fever,N,2,6,7,NOT APPLICABLE,
S0157,2,neutrophils,Y,3,8,10,NOT APPLICABLE,
S0157,3,gastrointestinal,N,1,12,13,NOT APPLICABLE,
S0157,4,sleeplessness,N,1,13,14,NOT APPLICABLE,
S0157,5,myalgia,N,1,14,15,NOT APPLICABLE,
S0157,6,depression_dominant,N,2,16,17,NOT APPLICABLE,
S0157,7,anorexia,N,1,19,20,NOT APPLICABLE,
S0157,8,alanine_aminotransferase_increased,N,2,21,22,NOT APPLICABLE,
S0157,9,catheter_related_infection,N,1,24,25,NOT APPLICABLE,
S0157,10,hypernatremia,N,1,27,28,NOT APPLICABLE,
S0157,11,decreased_platelet_count,N,2,30,31,reduce_percent,DM008
S0157,12,hyponatremia,N,2,30,31,NOT APPLICABLE,
S0157,13,nausea,N,1,32,33,NOT APPLICABLE,
S0157,14,leukocytes,N,2,35,36,NOT APPLICABLE,
S0157,15,diarrhea,N,2,41,42,NOT APPLICABLE,
S0157,16,hypercholesterolemia,N,1,49,50,NOT APPLICABLE,
S0157,17,arthralgia,N,1,53,54,NOT APPLICABLE,
S0157,18,vomiting,N,2,56,57,NOT APPLICABLE,
S0157,19,hypocalcemia,N,2,57,58,NOT APPLICABLE,
S0157,20,hypoalbuminemia,N,2,63,64,NOT APPLICABLE,
S0157,21,hemoglobin_normal_12_16_gm,N,1,64,65,NOT APPLICABLE,
S0157,22,dizziness,N,1,66,67,NOT APPLICABLE,
S0157,23,hypophosphatemia,N,2,67,68,NOT APPLICABLE,
S0157,24,hemoglobin_normal_12_16_gm,Y,3,68,70,NOT APPLICABLE,
S0157,25,leukocytes_(total_wbc),N,1,70,71,NOT APPLICABLE,
S0157,26,dyspnea,N,2,71,72,NOT APPLICABLE,
S0157,27,neuropathy_-_motor,N,2,72,73,NOT APPLICABLE,
S0157,28,blurred_vision,N,2,73,74,NOT APPLICABLE,
S0158,1,fever,N,2,27,28,NOT APPLICABLE,
S0158,2,myalgia,N,2,33,34,NOT APPLICABLE,
S0158,3,anorexia,N,1,35,36,NOT APPLICABLE,
S0158,4,catheter_related_infection,N,1,44,45,NOT APPLICABLE,
S0158,5,headache,N,2,51,52,NOT APPLICABLE,
S0158,6,neutrophils,Y,3,52,54,NOT APPLICABLE,
S0158,7,alopecia,N,1,53,54,NOT APPLICABLE,
S0158,8,dizziness,N,1,53,54,NOT APPLICABLE,
S0158,9,sensory_neuropathy,N,2,55,56,NOT APPLICABLE,
S0158,10,arthralgia,N,1,57,58,NOT APPLICABLE,
S0158,11,decreased_platelet_count,N,2,65,66,reduce_percent,DM008
S0158,12,blurred_vision,N,2,84,85,NOT APPLICABLE,
S0158,13,dry_skin,N,2,86,87,NOT APPLICABLE,
S0158,14,vomiting,N,2,88,89,NOT APPLICABLE,
S0158,15,hypoalbuminemia,N,2,91,92,NOT APPLICABLE,
S0158,16,depression_dominant,N,1,99,100,NOT APPLICABLE,
S0158,17,sweating,N,1,101,102,NOT APPLICABLE,
S0158,18,coughing,N,2,108,109,NOT APPLICABLE,
S0158,19,diarrhea,N,2,110,111,NOT APPLICABLE,
S0158,20,leukocytes,N,1,119,120,NOT APPLICABLE,
S0158,21,seizures,N,2,121,122,NOT APPLICABLE,
S0158,22,platelets,N,1,122,123,reduce_percent,DM008
S0158,23,gastrointestinal,N,1,133,134,NOT APPLICABLE,
S0158,24,sleeplessness,N,1,136,137,NOT APPLICABLE,
S0158,25,hypocalcemia,N,1,141,142,NOT APPLICABLE,
S0158,26,hypernatremia,N,1,147,148,NOT APPLICABLE,
S0158,27,anemia,N,2,154,155,NOT APPLICABLE,
S0158,28,alanine_aminotransferase_increased,N,2,157,158,NOT APPLICABLE,
S0158,29,neutropenia,N,1,165,166,NOT APPLICABLE,
S0158,30,fatigue,N,2,167,168,NOT APPLICABLE,
S0158,31,nausea,N,1,169,176,NOT APPLICABLE,
S0158,32,neuropathy_-_motor,N,1,171,178,NOT APPLICABLE,
S0158,33,hypokalemia,N,2,175,182,NOT APPLICABLE,
S0158,34,constipation,N,1,183,190,NOT APPLICABLE,
S0158,35,seizures,Y,3,183,197,NOT APPLICABLE,
S0158,36,dyspnea,N,1,185,192,NOT APPLICABLE,
S0158,37,hemoglobin_normal_12_16_gm,N,1,192,199,NOT APPLICABLE,
S0159,1,leukocytes,N,2,19,20,NOT APPLICABLE,
S0159,2,depression_dominant,N,1,22,23,NOT APPLICABLE,
S0159,3,hypoalbuminemia,N,2,74,75,NOT APPLICABLE,
S0159,4,neuropathy_-_motor,N,2,75,76,NOT APPLICABLE,
S0159,5,seizures,N,1,95,96,NOT APPLICABLE,
S0160,1,anemia,N,1,5,6,NOT APPLICABLE,
S0160,2,fever,N,1,5,6,NOT APPLICABLE,
S0160,3,anxiety,N,2,6,7,NOT APPLICABLE,
S0160,4,neutropenia,N,1,6,7,NOT APPLICABLE,
S0160,5,arthralgia,N,1,18,19,NOT APPLICABLE,
S0160,6,gastrointestinal,N,1,19,20,NOT APPLICABLE,
S0160,7,fatigue,N,1,23,24,NOT APPLICABLE,
S0160,8,blurred_vision,N,2,26,27,NOT APPLICABLE,
S0160,9,hypernatremia,N,2,27,28,NOT APPLICABLE,
S0160,10,leukocytes,N,1,35,36,NOT APPLICABLE,
S0160,11,sweating,N,2,44,45,NOT APPLICABLE,
S0160,12,neutrophils,Y,3,45,47,NOT APPLICABLE,
S0160,13,hypophosphatemia,N,2,53,54,NOT APPLICABLE,
S0160,14,dizziness,N,2,54,55,NOT APPLICABLE,
S0160,15,platelets,N,2,57,58,reduce_percent,DM008
S0160,16,catheter_related_infection,N,1,57,58,NOT APPLICABLE,
S0160,17,hypoalbuminemia,N,2,61,62,NOT APPLICABLE,
S0160,18,myalgia,N,1,63,64,NOT APPLICABLE,
S0160,19,hemoglobin_normal_12_16_gm,N,2,71,72,NOT APPLICABLE,
S0160,20,rhinitis,N,1,76,77,NOT APPLICABLE,
S0160,21,sensory_neuropathy,N,2,77,78,NOT APPLICABLE,
S0160,22,platelets,Y,3,86,88,reduce_percent,DM008
S0160,23,alanine_aminotransferase_increased,N,2,91,92,NOT APPLICABLE,
S0160,24,white_blood_cell_count_decreased,Y,3,94,96,NOT APPLICABLE,
S0160,25,leukocytes_(total_wbc),N,2,95,96,NOT APPLICABLE,
S0160,26,alopecia,N,1,104,105,NOT APPLICABLE,
S0160,27,hypertriglyceridemia,N,2,110,111,NOT APPLICABLE,
S0160,28,hypocalcemia,N,1,110,111,NOT APPLICABLE,
S0160,29,vomiting,N,1,112,113,NOT APPLICABLE,
S0160,30,hyperglycemia,N,2,112,113,NOT APPLICABLE,
S0160,31,hyponatremia,N,1,127,128,NOT APPLICABLE,
S0160,32,sleeplessness,N,2,130,131,NOT APPLICABLE,
S0160,33,hypokalemia,N,2,131,132,NOT APPLICABLE,
S0160,34,dysgeusia,N,1,135,136,NOT APPLICABLE,
S0160,35,seizures,N,1,136,137,NOT APPLICABLE,
S0160,36,depression_dominant,N,1,137,138,NOT APPLICABLE,
S0160,37,neuropathy_-_motor,N,2,139,140,NOT APPLICABLE,
S0160,38,weight_loss,N,2,139,140,NOT APPLICABLE,
S0160,39,upper_respiratory_infections,N,1,139,140,NOT APPLICABLE,
S0160,40,anorexia,N,1,145,146,NOT APPLICABLE,
S0160,41,coughing,N,2,146,147,NOT APPLICABLE,
S0160,42,seizures,Y,3,147,149,NOT APPLICABLE,
S0160,43,diarrhea,N,2,152,153,NOT APPLICABLE,
S0160,44,constipation,N,1,157,158,NOT APPLICABLE,
S0160,45,dyspnea,N,1,166,167,NOT APPLICABLE,
S0160,46,headache,N,2,179,186,NOT APPLICABLE,
S0160,47,neutrophil_count_decreased,N,2,191,198,NOT APPLICABLE,
S0160,48,decreased_platelet_count,N,1,192,199,NOT APPLICABLE,
S0161,1,alopecia,N,2,20,21,NOT APPLICABLE,
S0161,2,depression_dominant,N,2,32,33,NOT APPLICABLE,
S0161,3,arthralgia,N,2,39,40,NOT APPLICABLE,
S0161,4,hypernatremia,N,1,56,57,NOT APPLICABLE,
S0161,5,fatigue,N,2,73,74,NOT APPLICABLE,
S0161,6,constipation,N,1,123,124,NOT APPLICABLE,
S0161,7,catheter_related_infection,N,1,125,126,NOT APPLICABLE,
S0161,8,hypoalbuminemia,N,1,144,145,NOT APPLICABLE,
S0161,9,neuropathy_-_motor,N,2,145,146,NOT APPLICABLE,
S0161,10,gastrointestinal,N,1,150,151,NOT APPLICABLE,
S0161,11,leukocytes,N,2,155,156,NOT APPLICABLE,
S0161,12,seizures,N,1,163,164,NOT APPLICABLE,
S0161,13,myalgia,N,2,188,195,NOT APPLICABLE,
S0161,14,hypocalcemia,N,1,189,196,NOT APPLICABLE,
S0162,1,arthralgia,N,1,10,11,NOT APPLICABLE,
S0162,2,dyspnea,N,1,19,20,NOT APPLICABLE,
S0162,3,neuropathy_-_sensory,N,2,20,21,NOT APPLICABLE,
S0162,4,pain_other,N,2,25,26,NOT APPLICABLE,
S0162,5,platelets,N,1,37,38,reduce_percent,DM008
S0162,6,allergic_rhinitis_disorder,N,2,41,42,NOT APPLICABLE,
S0162,7,muscle_weakness,N,2,69,70,NOT APPLICABLE,
S0162,8,hypernatremia,N,1,78,79,NOT APPLICABLE,
S0162,9,depression_dominant,N,2,93,94,NOT APPLICABLE,
S0162,10,white_blood_cell_count_decreased,Y,3,96,98,NOT APPLICABLE,
S0162,11,neutropenia,N,2,97,98,NOT APPLICABLE,
S0162,12,hypokalemia,N,1,105,106,NOT APPLICABLE,
S0162,13,hyponatremia,N,2,111,112,NOT APPLICABLE,
S0162,14,nausea,N,2,127,128,NOT APPLICABLE,
S0162,15,coughing,N,2,130,131,NOT APPLICABLE,
S0162,16,peripheral_motor_neuropathy,N,2,140,141,NOT APPLICABLE,
S0162,17,gastrointestinal,N,2,146,147,NOT APPLICABLE,
S0162,18,hemoglobin_normal_12_16_gm,N,1,151,152,NOT APPLICABLE,
S0162,19,thrombocytopenia,N,1,163,164,reduce_percent,DM008
S0162,20,neutrophil_count_decreased,N,2,183,190,NOT APPLICABLE,
S0163,1,anxiety,N,2,33,34,NOT APPLICABLE,
S0163,2,hypernatremia,N,1,39,40,NOT APPLICABLE,
S0163,3,neutrophil_count_decreased,N,1,82,83,NOT APPLICABLE,
S0163,4,vomiting,N,2,115,116,NOT APPLICABLE,
S0163,5,platelets,N,2,123,124,reduce_percent,DM008
S0163,6,rhinitis,N,1,132,133,NOT APPLICABLE,
S0163,7,nausea,N,1,136,137,NOT APPLICABLE,
S0163,8,constipation,N,1,150,151,NOT APPLICABLE,
S0163,9,alopecia,N,2,150,151,NOT APPLICABLE,
S0163,10,thrombocytopenia,N,2,150,151,reduce_percent,DM008
S0163,11,hemoglobin_normal_12_16_gm,N,1,152,153,NOT APPLICABLE,
S0163,12,neuropathy_-_sensory,N,2,153,154,NOT APPLICABLE,
S0163,13,coughing,N,1,167,168,NOT APPLICABLE,
S0163,14,fatigue,N,2,171,178,NOT APPLICABLE,
S0163,15,neutropenia,N,2,175,182,NOT APPLICABLE,
S0163,16,muscle_weakness,N,1,196,203,NOT APPLICABLE,
S0164,1,hypernatremia,N,2,4,5,NOT APPLICABLE,
S0164,2,hypocalcemia,N,2,4,5,NOT APPLICABLE,
S0164,3,arthralgia,N,1,17,18,NOT APPLICABLE,
S0164,4,blurred_vision,N,1,21,22,NOT APPLICABLE,
S0164,5,catheter_related_infection,N,2,22,23,NOT APPLICABLE,
S0164,6,anorexia,N,2,26,27,NOT APPLICABLE,
S0164,7,seizures,N,2,28,29,NOT APPLICABLE,
S0164,8,coughing,N,2,31,32,NOT APPLICABLE,
S0164,9,fatigue,N,1,36,37,NOT APPLICABLE,
S0164,10,depression_dominant,N,1,36,37,NOT APPLICABLE,
S0164,11,myalgia,N,2,38,39,NOT APPLICABLE,
S0164,12,neuropathy_-_motor,N,2,55,56,NOT APPLICABLE,
S0164,13,dyspnea,N,2,57,58,NOT APPLICABLE,
S0164,14,leukocytes,N,1,64,65,NOT APPLICABLE,
S0164,15,hemoglobin_normal_12_16_gm,N,1,83,84,NOT APPLICABLE,
S0164,16,hypoalbuminemia,N,2,83,84,NOT APPLICABLE,
S0164,17,alopecia,N,1,95,96,NOT APPLICABLE,
S0164,18,constipation,N,1,97,98,NOT APPLICABLE,
S0164,19,sleeplessness,N,2,124,125,NOT APPLICABLE,
S0164,20,hypophosphatemia,N,1,129,130,NOT APPLICABLE,
S0164,21,seizures,Y,3,139,141,NOT APPLICABLE,
S0164,22,hemoglobin_normal_12_16_gm,Y,3,147,149,NOT APPLICABLE,
S0164,23,gastrointestinal,N,1,151,152,NOT APPLICABLE,
S0164,24,sensory_neuropathy,N,2,162,163,NOT APPLICABLE,
S0164,25,neutropenia,N,1,185,192,NOT APPLICABLE,
S0165,1,nausea,N,1,7,8,NOT APPLICABLE,
S0165,2,fatigue,N,1,13,14,NOT APPLICABLE,
S0165,3,thrombocytopenia,N,2,34,35,reduce_percent,DM008
S0165,4,decreased_platelet_count,N,2,38,39,reduce_percent,DM008
S0165,5,anorexia,N,1,39,40,NOT APPLICABLE,
S0165,6,weight_loss,N,1,50,51,NOT APPLICABLE,
S0165,7,neutropenia,N,2,55,56,NOT APPLICABLE,
S0165,8,dizziness,N,1,69,70,NOT APPLICABLE,
S0165,9,neutrophil_count_decreased,N,2,76,77,NOT APPLICABLE,
S0165,10,hypertriglyceridemia,N,2,100,101,NOT APPLICABLE,
S0165,11,platelets,Y,3,106,108,reduce_percent,DM008
S0165,12,platelets,N,2,112,113,reduce_percent,DM008
S0165,13,hemoglobin_normal_12_16_gm,N,2,124,125,NOT APPLICABLE,
S0165,14,muscle_weakness,N,2,127,128,NOT APPLICABLE,
S0165,15,myalgia,N,2,132,133,NOT APPLICABLE,
S0165,16,neuropathy_-_sensory,N,2,170,177,NOT APPLICABLE,
S0165,17,anxiety,N,1,188,195,NOT APPLICABLE,
S0165,18,hyperkalemia,N,2,197,204,NOT APPLICABLE,
S0166,1,platelets,N,1,5,6,reduce_percent,DM008
S0166,2,neuropathy_-_sensory,N,1,16,17,NOT APPLICABLE,
S0166,3,peripheral_motor_neuropathy,N,2,18,19,NOT APPLICABLE,
S0166,4,fatigue,N,2,33,34,NOT APPLICABLE,
S0166,5,hypernatremia,N,1,33,34,NOT APPLICABLE,
S0166,6,hemoglobin_normal_12_16_gm,N,2,44,45,NOT APPLICABLE,
S0166,7,anemia,N,2,44,45,NOT APPLICABLE,
S0166,8,dyspnea,N,2,57,58,NOT APPLICABLE,
S0166,9,thrombocytopenia,N,2,62,63,reduce_percent,DM008
S0166,10,alopecia,N,1,64,65,NOT APPLICABLE,
S0166,11,nausea,N,2,65,66,NOT APPLICABLE,
S0166,12,neutrophil_count_decreased,N,1,73,74,NOT APPLICABLE,
S0166,13,arthralgia,N,2,139,140,NOT APPLICABLE,
S0166,14,neutropenia,N,1,153,154,NOT APPLICABLE,
S0166,15,muscle_weakness,N,2,162,163,NOT APPLICABLE,
S0166,16,dizziness,N,1,164,165,NOT APPLICABLE,
S0166,17,gastrointestinal,N,1,171,178,NOT APPLICABLE,
S0166,18,coughing,N,2,185,192,NOT APPLICABLE,
S0167,1,neuropathy_-_sensory,N,1,6,7,NOT APPLICABLE,
S0167,2,decreased_platelet_count,N,1,7,8,reduce_percent,DM008
S0167,3,upper_respiratory_infections,N,1,9,10,NOT APPLICABLE,
S0167,4,neutropenia,N,2,14,15,NOT APPLICABLE,
S0167,5,dyspnea,N,1,31,32,NOT APPLICABLE,
S0167,6,constipation,N,1,46,47,NOT APPLICABLE,
S0167,7,neutrophil_count_decreased,N,2,49,50,NOT APPLICABLE,
S0167,8,hypertriglyceridemia,N,2,62,63,NOT APPLICABLE,
S0167,9,fatigue,N,1,65,66,NOT APPLICABLE,
S0167,10,muscle_weakness,N,1,67,68,NOT APPLICABLE,
S0167,11,nausea,N,2,111,112,NOT APPLICABLE,
S0167,12,thrombocytopenia,N,1,112,113,reduce_percent,DM008
S0167,13,platelets,N,1,115,116,reduce_percent,DM008
S0167,14,peripheral_motor_neuropathy,N,2,137,138,NOT APPLICABLE,
S0167,15,hemoglobin_normal_12_16_gm,N,1,143,144,NOT APPLICABLE,
S0167,16,vomiting,N,1,159,160,NOT APPLICABLE,
S0167,17,catheter_related_infection,N,2,160,161,NOT APPLICABLE,
S0168,1,alopecia,N,1,8,9,NOT APPLICABLE,
S0168,2,nausea,N,1,11,12,NOT APPLICABLE,
S0168,3,platelets,N,1,12,13,reduce_percent,DM008
S0168,4,platelets,Y,3,28,30,reduce_percent,DM008
S0168,5,neuropathy_-_sensory,N,2,45,46,NOT APPLICABLE,
S0168,6,anorexia,N,1,50,51,NOT APPLICABLE,
S0168,7,sleeplessness,N,2,50,51,NOT APPLICABLE,
S0168,8,neutrophils,N,2,61,62,NOT APPLICABLE,
S0168,9,myalgia,N,2,63,64,NOT APPLICABLE,
S0168,10,fatigue,N,1,71,72,NOT APPLICABLE,
S0168,11,upper_respiratory_infections,N,1,77,78,NOT APPLICABLE,
S0168,12,dizziness,N,2,84,85,NOT APPLICABLE,
S0168,13,hemoglobin_normal_12_16_gm,N,2,120,121,NOT APPLICABLE,
S0168,14,hypoalbuminemia,N,1,151,152,NOT APPLICABLE,
S0168,15,arthralgia,N,1,161,162,NOT APPLICABLE,
S0168,16,muscle_weakness,N,2,174,181,NOT APPLICABLE,
S0168,17,sweating,N,2,185,192,NOT APPLICABLE,
S0168,18,blurred_vision,N,1,192,199,NOT APPLICABLE,
S0169,1,myalgia,N,1,1,2,NOT APPLICABLE,
S0169,2,gastrointestinal,N,1,7,8,NOT APPLICABLE,
S0169,3,hypernatremia,N,2,18,19,NOT APPLICABLE,
S0169,4,nausea,N,1,21,22,NOT APPLICABLE,
S0169,5,neuropathy_-_motor,N,1,50,51,NOT APPLICABLE,
S0169,6,hypoalbuminemia,N,1,54,55,NOT APPLICABLE,
S0169,7,fatigue,N,2,56,57,NOT APPLICABLE,
S0169,8,catheter_related_infection,N,2,64,65,NOT APPLICABLE,
S0169,9,arthralgia,N,1,69,70,NOT APPLICABLE,
S0169,10,seizures,N,2,81,82,NOT APPLICABLE,
S0169,11,leukocytes,N,1,84,85,NOT APPLICABLE,
S0169,12,depression_dominant,N,1,95,96,NOT APPLICABLE,
S0169,13,anorexia,N,1,114,115,NOT APPLICABLE,
S0169,14,hypocalcemia,N,2,120,121,NOT APPLICABLE,
S0169,15,sensory_neuropathy,N,2,170,177,NOT APPLICABLE,
S0169,16,platelets,N,1,190,197,NOT APPLICABLE,
S0170,1,platelets,N,1,22,23,reduce_percent,DM008
S0170,2,fatigue,N,2,40,41,NOT APPLICABLE,
S0170,3,muscle_weakness,N,2,50,51,NOT APPLICABLE,
S0170,4,peripheral_motor_neuropathy,N,2,65,66,NOT APPLICABLE,
S0170,5,nausea,N,1,66,67,NOT APPLICABLE,
S0170,6,rhinitis,N,1,80,81,NOT APPLICABLE,
S0170,7,headache,N,2,107,108,NOT APPLICABLE,
S0170,8,sleeplessness,N,1,115,116,NOT APPLICABLE,
S0170,9,arthralgia,N,2,139,140,NOT APPLICABLE,
S0170,10,hypernatremia,N,1,141,142,NOT APPLICABLE,
S0170,11,neuropathy_-_sensory,N,1,150,151,NOT APPLICABLE,
S0170,12,dyspnea,N,2,152,153,NOT APPLICABLE,
S0170,13,neutrophil_count_decreased,N,2,154,155,NOT APPLICABLE,
S0170,14,vomiting,N,1,175,182,NOT APPLICABLE,
S0170,15,neuropathy_-_motor,N,2,176,183,NOT APPLICABLE,
S0170,16,coughing,N,2,182,189,NOT APPLICABLE,
S0171,1,hypernatremia,N,2,15,16,NOT APPLICABLE,
S0171,2,thrombosis/thrombus/embolism,Y,3,21,23,NOT APPLICABLE,
S0171,3,neuropathy_-_motor,N,1,24,25,NOT APPLICABLE,
S0171,4,hypoalbuminemia,N,1,26,27,NOT APPLICABLE,
S0171,5,myalgia,N,1,32,33,NOT APPLICABLE,
S0171,6,seizures,Y,3,41,43,NOT APPLICABLE,
S0171,7,headache,N,2,58,59,NOT APPLICABLE,
S0171,8,neutrophils,Y,3,60,62,NOT APPLICABLE,
S0171,9,platelets,Y,3,72,74,reduce_percent,DM008
S0171,10,coughing,N,1,78,79,NOT APPLICABLE,
S0171,11,constipation,N,1,79,80,NOT APPLICABLE,
S0171,12,leukocytes_(total_wbc),N,2,80,81,NOT APPLICABLE,
S0171,13,nausea,N,2,81,82,NOT APPLICABLE,
S0171,14,anxiety,N,2,87,88,NOT APPLICABLE,
S0171,15,diarrhea,N,1,102,103,NOT APPLICABLE,
S0171,16,alopecia,N,2,104,105,NOT APPLICABLE,
S0171,17,hemoglobin_normal_12_16_gm,N,1,106,107,NOT APPLICABLE,
S0171,18,sleeplessness,N,1,106,107,NOT APPLICABLE,
S0171,19,white_blood_cell_count_decreased,Y,3,115,117,NOT APPLICABLE,
S0171,20,depression_dominant,N,2,121,122,NOT APPLICABLE,
S0171,21,platelets,N,1,126,127,reduce_percent,DM008
S0171,22,vomiting,N,1,130,131,NOT APPLICABLE,
S0171,23,blurred_vision,N,2,132,133,NOT APPLICABLE,
S0171,24,dry_skin,N,2,138,139,NOT APPLICABLE,
S0171,25,weight_loss,N,1,141,142,NOT APPLICABLE,
S0171,26,hypocalcemia,N,1,142,143,NOT APPLICABLE,
S0171,27,seizures,N,1,143,144,NOT APPLICABLE,
S0171,28,anorexia,N,1,145,146,NOT APPLICABLE,
S0171,29,arthralgia,N,2,159,160,NOT APPLICABLE,
S0171,30,catheter_related_infection,N,1,159,160,NOT APPLICABLE,
S0171,31,fever,N,1,161,162,NOT APPLICABLE,
S0171,32,fatigue,N,1,162,163,NOT APPLICABLE,
S0171,33,anemia,N,1,165,166,NOT APPLICABLE,
S0171,34,hypophosphatemia,N,1,171,178,NOT APPLICABLE,
S0171,35,leukocytes,N,2,174,181,NOT APPLICABLE,
S0171,36,dyspnea,N,1,183,190,NOT APPLICABLE,
S0171,37,sensory_neuropathy,N,1,184,191,NOT APPLICABLE,
S0171,38,hyponatremia,N,2,195,202,NOT APPLICABLE,
S0171,39,dizziness,N,2,198,205,NOT APPLICABLE,
S0171,40,gastrointestinal,N,1,198,205,NOT APPLICABLE,
S0172,1,hypoalbuminemia,N,1,3,4,NOT APPLICABLE,
S0172,2,neuropathy_-_motor,N,1,7,8,NOT APPLICABLE,
S0172,3,coughing,N,2,41,42,NOT APPLICABLE,
S0172,4,hypocalcemia,N,1,43,44,NOT APPLICABLE,
S0172,5,myalgia,N,2,48,49,NOT APPLICABLE,
S0172,6,arthralgia,N,2,84,85,NOT APPLICABLE,
S0172,7,hypernatremia,N,2,94,95,NOT APPLICABLE,
S0172,8,leukocytes,N,1,136,137,NOT APPLICABLE,
S0172,9,catheter_related_infection,N,1,158,159,NOT APPLICABLE,
S0172,10,blurred_vision,N,1,158,159,NOT APPLICABLE,
S0172,11,depression_dominant,N,2,164,165,NOT APPLICABLE,
S0173,1,hypoalbuminemia,N,1,25,26,NOT APPLICABLE,
S0173,2,seizures,N,1,32,33,NOT APPLICABLE,
S0173,3,coughing,N,1,51,52,NOT APPLICABLE,
S0173,4,depression_dominant,N,1,53,54,NOT APPLICABLE,
S0173,5,hypophosphatemia,N,1,62,63,NOT APPLICABLE,
S0173,6,hypocalcemia,N,1,119,120,NOT APPLICABLE,
S0173,7,neuropathy_-_motor,N,2,140,141,NOT APPLICABLE,
S0173,8,sensory_neuropathy,N,2,142,143,NOT APPLICABLE,
S0173,9,catheter_related_infection,N,2,182,189,NOT APPLICABLE,
S0173,10,myalgia,N,2,186,193,NOT APPLICABLE,
S0173,11,leukocytes,N,1,186,193,NOT APPLICABLE,
S0174,1,catheter_related_infection,N,1,17,18,NOT APPLICABLE,
S0174,2,depression_dominant,N,2,31,32,NOT APPLICABLE,
S0174,3,constipation,N,1,33,34,NOT APPLICABLE,
S0174,4,myalgia,N,1,34,35,NOT APPLICABLE,
S0174,5,hypoalbuminemia,N,1,34,35,NOT APPLICABLE,
S0174,6,alopecia,N,2,35,36,NOT APPLICABLE,
S0174,7,neuropathy_-_motor,N,2,36,37,NOT APPLICABLE,
S0174,8,arthralgia,N,1,38,39,NOT APPLICABLE,
S0174,9,blurred_vision,N,1,59,60,NOT APPLICABLE,
S0174,10,hypernatremia,N,1,65,66,NOT APPLICABLE,
S0174,11,coughing,N,1,70,71,NOT APPLICABLE,
S0174,12,sensory_neuropathy,N,2,87,88,NOT APPLICABLE,
S0174,13,hypocalcemia,N,1,91,92,NOT APPLICABLE,
S0174,14,leukocytes,N,2,96,97,NOT APPLICABLE,
S0175,1,sweating,N,2,1,2,NOT APPLICABLE,
S0175,2,neuropathy_-_sensory,N,2,40,41,NOT APPLICABLE,
S0175,3,hypocalcemia,N,1,47,48,NOT APPLICABLE,
S0175,4,muscle_weakness,N,2,54,55,NOT APPLICABLE,
S0175,5,catheter_related_infection,N,1,65,66,NOT APPLICABLE,
S0175,6,neutrophil_count_decreased,N,1,80,81,NOT APPLICABLE,
S0175,7,neutropenia,N,1,84,85,NOT APPLICABLE,
S0175,8,alopecia,N,2,95,96,NOT APPLICABLE,
S0175,9,hemoglobin_normal_12_16_gm,N,1,120,121,NOT APPLICABLE,
S0175,10,nausea,N,2,122,123,NOT APPLICABLE,
S0175,11,alanine_aminotransferase_increased,N,2,154,155,NOT APPLICABLE,
S0175,12,fatigue,N,1,156,157,NOT APPLICABLE,
S0175,13,platelets,N,2,173,180,NOT APPLICABLE,
S0175,14,hydrocephalus,Y,3,173,187,NOT APPLICABLE,
S0175,15,thrombocytopenia,N,2,183,190,NOT APPLICABLE,
S0176,1,neuropathy_-_sensory,N,2,6,7,NOT APPLICABLE,
S0176,2,neuropathy_-_motor,N,1,21,22,NOT APPLICABLE,
S0176,3,neutrophil_count_decreased,N,1,26,27,NOT APPLICABLE,
S0176,4,hemoglobin_normal_12_16_gm,N,1,32,33,NOT APPLICABLE,
S0176,5,thrombosis/thrombus/embolism,Y,3,46,48,NOT APPLICABLE,
S0176,6,sweating,N,2,55,56,NOT APPLICABLE,
S0176,7,muscle_weakness,N,2,70,71,NOT APPLICABLE,
S0176,8,catheter_related_infection,N,1,74,75,NOT APPLICABLE,
S0176,9,headache,N,1,76,77,NOT APPLICABLE,
S0176,10,neutropenia,N,2,82,83,NOT APPLICABLE,
S0176,11,anemia,N,2,87,88,NOT APPLICABLE,
S0176,12,fatigue,N,1,91,92,NOT APPLICABLE,
S0176,13,hyperkalemia,N,1,103,104,NOT APPLICABLE,
S0176,14,myalgia,N,1,107,108,NOT APPLICABLE,
S0176,15,rhinitis,N,2,131,132,NOT APPLICABLE,
S0176,16,nausea,N,2,135,136,NOT APPLICABLE,
S0176,17,dyspnea,N,2,135,136,NOT APPLICABLE,
S0176,18,vomiting,N,2,156,157,NOT APPLICABLE,
S0176,19,seizures,N,1,160,161,NOT APPLICABLE,
S0176,20,sleeplessness,N,1,171,178,NOT APPLICABLE,
S0176,21,platelets,N,1,174,181,NOT APPLICABLE,
S0176,22,upper_respiratory_infections,N,2,176,183,NOT APPLICABLE,
S0176,23,hypernatremia,N,2,188,195,NOT APPLICABLE,
S0177,1,catheter_related_infection,N,1,2,3,NOT APPLICABLE,
S0177,2,platelets,N,1,15,16,reduce_percent,DM008
S0177,3,fatigue,N,2,39,40,NOT APPLICABLE,
S0177,4,dyspnea,N,2,47,48,NOT APPLICABLE,
S0177,5,platelets,Y,3,53,55,reduce_percent,DM008
S0177,6,vomiting,N,2,71,72,NOT APPLICABLE,
S0177,7,hyperkalemia,N,1,74,75,NOT APPLICABLE,
S0177,8,neutrophils,N,1,100,101,NOT APPLICABLE,
S0177,9,headache,N,1,101,102,NOT APPLICABLE,
S0177,10,arthralgia,N,2,110,111,NOT APPLICABLE,
S0177,11,hypertriglyceridemia,N,1,138,139,NOT APPLICABLE,
S0177,12,neuropathy_-_sensory,N,2,143,144,NOT APPLICABLE,
S0177,13,muscle_weakness,N,2,144,145,NOT APPLICABLE,
S0177,14,nausea,N,1,163,164,NOT APPLICABLE,
S0177,15,hemoglobin_normal_12_16_gm,N,2,165,166,NOT APPLICABLE,
S0177,16,peripheral_motor_neuropathy,N,2,165,166,NOT APPLICABLE,
S0177,17,coughing,N,1,167,168,NOT APPLICABLE,
S0177,18,hypernatremia,N,1,193,200,NOT APPLICABLE,
S0177,19,neutrophil_count_decreased,N,1,196,203,NOT APPLICABLE,
S0178,1,neuropathy_-_motor,N,1,26,27,NOT APPLICABLE,
S0178,2,coughing,N,1,56,57,NOT APPLICABLE,
S0178,3,myalgia,N,1,58,59,NOT APPLICABLE,
S0178,4,gastrointestinal,N,1,64,65,NOT APPLICABLE,
S0178,5,constipation,N,2,68,69,NOT APPLICABLE,
S0178,6,anorexia,N,2,69,70,NOT APPLICABLE,
S0178,7,anemia,N,2,79,80,NOT APPLICABLE,
S0178,8,sleeplessness,N,2,83,84,NOT APPLICABLE,
S0178,9,hypernatremia,N,2,83,84,NOT APPLICABLE,
S0178,10,seizures,N,1,98,99,NOT APPLICABLE,
S0178,11,hypoalbuminemia,N,1,103,104,NOT APPLICABLE,
S0178,12,depression_dominant,N,1,106,107,NOT APPLICABLE,
S0178,13,vomiting,N,1,108,109,NOT APPLICABLE,
S0178,14,catheter_related_infection,N,1,113,114,NOT APPLICABLE,
S0178,15,nausea,N,1,116,117,NOT APPLICABLE,
S0178,16,alopecia,N,2,130,131,NOT APPLICABLE,
S0178,17,sensory_neuropathy,N,1,139,140,NOT APPLICABLE,
S0178,18,fatigue,N,1,144,145,NOT APPLICABLE,
S0178,19,arthralgia,N,2,145,146,NOT APPLICABLE,
S0178,20,hypophosphatemia,N,2,145,146,NOT APPLICABLE,
S0178,21,hemoglobin_normal_12_16_gm,N,1,150,151,NOT APPLICABLE,
S0178,22,platelets,N,2,156,157,reduce_percent,DM008
S0178,23,blurred_vision,N,1,158,159,NOT APPLICABLE,
S0178,24,hypocalcemia,N,2,185,192,NOT APPLICABLE,
S0178,25,leukocytes,N,2,189,196,NOT APPLICABLE,
S0179,1,platelets,N,1,1,2,reduce_percent,DM008
S0179,2,hemoglobin_normal_12_16_gm,N,2,5,6,NOT APPLICABLE,
S0179,3,hypophosphatemia,N,2,11,12,NOT APPLICABLE,
S0179,4,hemoglobin_normal_12_16_gm,Y,3,12,14,NOT APPLICABLE,
S0179,5,hypernatremia,N,1,17,18,NOT APPLICABLE,
S0179,6,hypokalemia,N,1,31,32,NOT APPLICABLE,
S0179,7,hypocalcemia,N,1,43,44,NOT APPLICABLE,
S0179,8,anorexia,N,1,61,62,NOT APPLICABLE,
S0179,9,constipation,N,2,65,66,NOT APPLICABLE,
S0179,10,leukocytes,N,1,68,69,NOT APPLICABLE,
S0179,11,nausea,N,1,69,70,NOT APPLICABLE,
S0179,12,hypoalbuminemia,N,2,76,77,NOT APPLICABLE,
S0179,13,alopecia,N,2,83,84,NOT APPLICABLE,
S0179,14,anemia,N,1,90,91,NOT APPLICABLE,
S0179,15,blurred_vision,N,2,90,91,NOT APPLICABLE,
S0179,16,myalgia,N,2,92,93,NOT APPLICABLE,
S0179,17,depression_dominant,N,2,93,94,NOT APPLICABLE,
S0179,18,dry_skin,N,2,102,103,NOT APPLICABLE,
S0179,19,fatigue,N,2,106,107,NOT APPLICABLE,
S0179,20,gastrointestinal,N,1,112,113,NOT APPLICABLE,
S0179,21,vomiting,N,2,115,116,NOT APPLICABLE,
S0179,22,seizures,N,2,125,126,NOT APPLICABLE,
S0179,23,neuropathy_-_motor,N,2,128,129,NOT APPLICABLE,
S0179,24,neutrophils,Y,3,129,131,NOT APPLICABLE,
S0179,25,sweating,N,2,132,133,NOT APPLICABLE,
S0179,26,dyspnea,N,1,141,142,NOT APPLICABLE,
S0179,27,fever,N,2,143,144,NOT APPLICABLE,
S0179,28,headache,N,1,155,156,NOT APPLICABLE,
S0179,29,coughing,N,2,158,159,NOT APPLICABLE,
S0179,30,catheter_related_infection,N,2,167,168,NOT APPLICABLE,
S0179,31,anxiety,N,1,171,178,NOT APPLICABLE,
S0179,32,arthralgia,N,1,182,189,NOT APPLICABLE,
S0179,33,sensory_neuropathy,N,1,182,189,NOT APPLICABLE,
S0179,34,sleeplessness,N,1,187,194,NOT APPLICABLE,
S0179,35,dizziness,N,2,190,197,NOT APPLICABLE,
S0179,36,alanine_aminotransferase_increased,N,1,196,203,NOT APPLICABLE,
S0180,1,alopecia,N,1,16,17,NOT APPLICABLE,
S0180,2,leukocytes,N,1,18,19,NOT APPLICABLE,
S0180,3,leukocytes_(total_wbc),N,1,22,23,NOT APPLICABLE,
S0180,4,hemoglobin_normal_12_16_gm,Y,3,25,27,NOT APPLICABLE,
S0180,5,peripheral_motor_neuropathy,N,1,27,28,NOT APPLICABLE,
S0180,6,fatigue,N,2,30,31,NOT APPLICABLE,
S0180,7,sweating,N,1,31,32,NOT APPLICABLE,
S0180,8,neuropathy_-_motor,N,1,38,39,NOT APPLICABLE,
S0180,9,hypokalemia,N,2,39,40,NOT APPLICABLE,
S0180,10,anemia,N,1,41,42,NOT APPLICABLE,
S0180,11,headache,Y,3,42,44,NOT APPLICABLE,
S0180,12,diarrhea,N,2,43,44,NOT APPLICABLE,
S0180,13,blurred_vision,N,1,48,49,NOT APPLICABLE,
S0180,14,anxiety,N,2,51,52,NOT APPLICABLE,
S0180,15,fever,N,2,54,55,NOT APPLICABLE,
S0180,16,arthralgia,N,1,64,65,NOT APPLICABLE,
S0180,17,depression_dominant,N,1,68,69,NOT APPLICABLE,
S0180,18,vomiting,N,1,69,70,NOT APPLICABLE,
S0180,19,seizures,Y,3,74,76,NOT APPLICABLE,
S0180,20,seizures,N,1,76,77,NOT APPLICABLE,
S0180,21,stomatitis,N,1,77,78,NOT APPLICABLE,
S0180,22,muscle_weakness,N,1,78,79,NOT APPLICABLE,
S0180,23,hypesthesia,N,2,84,85,NOT APPLICABLE,
S0180,24,rhinitis,N,2,85,86,NOT APPLICABLE,
S0180,25,dyspnea,N,2,86,87,NOT APPLICABLE,
S0180,26,neutropenia,N,1,86,87,NOT APPLICABLE,
S0180,27,decreased_platelet_count,N,1,86,87,reduce_percent,DM008
S0180,28,hypoalbuminemia,N,1,89,90,NOT APPLICABLE,
S0180,29,sensory_neuropathy,N,2,91,92,NOT APPLICABLE,
S0180,30,pain_other,N,2,104,105,NOT APPLICABLE,
S0180,31,headache,N,1,105,106,NOT APPLICABLE,
S0180,32,neutrophils,Y,3,105,107,NOT APPLICABLE,
S0180,33,hypophosphatemia,N,2,116,117,NOT APPLICABLE,
S0180,34,dysgeusia,N,2,118,119,NOT APPLICABLE,
S0180,35,hypocalcemia,N,2,124,125,NOT APPLICABLE,
S0180,36,constipation,N,1,126,127,NOT APPLICABLE,
S0180,37,dizziness,N,2,127,128,NOT APPLICABLE,
S0180,38,gastrointestinal,N,2,131,132,NOT APPLICABLE,
S0180,39,alanine_aminotransferase_increased,N,2,132,133,NOT APPLICABLE,
S0180,40,hypercholesterolemia,N,2,139,140,NOT APPLICABLE,
S0180,41,hypernatremia,N,2,144,145,NOT APPLICABLE,
S0180,42,myalgia,N,2,152,153,NOT APPLICABLE,
S0180,43,coughing,N,2,156,157,NOT APPLICABLE,
S0180,44,anorexia,N,2,157,158,NOT APPLICABLE,
S0180,45,thrombosis/thrombus/embolism,Y,3,160,162,NOT APPLICABLE,
S0180,46,sleeplessness,N,2,170,177,NOT APPLICABLE,
S0180,47,allergic_rhinitis_disorder,N,1,172,179,NOT APPLICABLE,
S0180,48,hemoglobin_normal_12_16_gm,N,1,173,180,NOT APPLICABLE,
S0180,49,dry_skin,N,2,173,180,NOT APPLICABLE,
S0180,50,platelets,N,2,178,185,NOT APPLICABLE,
S0180,51,catheter_related_infection,N,1,182,189,NOT APPLICABLE,
S0180,52,platelets,Y,3,191,205,NOT APPLICABLE,
S0180,53,rash_erythematous_macules_or_papules,N,2,197,204,NOT APPLICABLE,
S0180,54,nausea,N,1,198,205,NOT APPLICABLE,
S0181,1,headache,N,2,5,6,NOT APPLICABLE,
S0181,2,fatigue,N,1,7,8,NOT APPLICABLE,
S0181,3,arthralgia,N,2,13,14,NOT APPLICABLE,
S0181,4,neutrophils,Y,3,20,22,NOT APPLICABLE,
S0181,5,blurred_vision,N,1,26,27,NOT APPLICABLE,
S0181,6,dizziness,N,2,44,45,NOT APPLICABLE,
S0181,7,dry_skin,N,1,65,66,NOT APPLICABLE,
S0181,8,seizures,N,1,78,79,NOT APPLICABLE,
S0181,9,hypernatremia,N,1,87,88,NOT APPLICABLE,
S0181,10,hypoalbuminemia,N,1,89,90,NOT APPLICABLE,
S0181,11,catheter_related_infection,N,1,96,97,NOT APPLICABLE,
S0181,12,hypocalcemia,N,1,100,101,NOT APPLICABLE,
S0181,13,hypophosphatemia,N,1,103,104,NOT APPLICABLE,
S0181,14,sleeplessness,N,1,113,114,NOT APPLICABLE,
S0181,15,diarrhea,N,2,117,118,NOT APPLICABLE,
S0181,16,sensory_neuropathy,N,1,119,120,NOT APPLICABLE,
S0181,17,dyspnea,N,2,122,123,NOT APPLICABLE,
S0181,18,leukocytes,N,1,122,123,NOT APPLICABLE,
S0181,19,constipation,N,2,125,126,NOT APPLICABLE,
S0181,20,hemoglobin_normal_12_16_gm,N,1,131,132,NOT APPLICABLE,
S0181,21,myalgia,N,1,136,137,NOT APPLICABLE,
S0181,22,fever,N,1,144,145,NOT APPLICABLE,
S0181,23,platelets,N,2,152,153,reduce_percent,DM008
S0181,24,anemia,N,2,157,158,NOT APPLICABLE,
S0181,25,vomiting,N,1,164,165,NOT APPLICABLE,
S0181,26,coughing,N,1,164,165,NOT APPLICABLE,
S0181,27,depression_dominant,N,2,173,180,NOT APPLICABLE,
S0181,28,anorexia,N,1,175,182,NOT APPLICABLE,
S0181,29,alopecia,N,1,176,183,NOT APPLICABLE,
S0181,30,neuropathy_-_motor,N,1,182,189,NOT APPLICABLE,
S0182,1,hemoglobin_normal_12_16_gm,N,2,18,19,NOT APPLICABLE,
S0182,2,neuropathy_-_motor,N,2,37,38,NOT APPLICABLE,
S0182,3,sensory_neuropathy,N,1,37,38,NOT APPLICABLE,
S0182,4,coughing,N,1,51,52,NOT APPLICABLE,
S0182,5,catheter_related_infection,N,1,52,53,NOT APPLICABLE,
S0182,6,sleeplessness,N,2,69,70,NOT APPLICABLE,
S0182,7,hypoalbuminemia,N,1,70,71,NOT APPLICABLE,
S0182,8,hypocalcemia,N,2,78,79,NOT APPLICABLE,
S0182,9,depression_dominant,N,1,100,101,NOT APPLICABLE,
S0182,10,hypernatremia,N,1,115,116,NOT APPLICABLE,
S0182,11,alopecia,N,2,122,123,NOT APPLICABLE,
S0182,12,leukocytes,N,2,132,133,NOT APPLICABLE,
S0182,13,arthralgia,N,2,139,140,NOT APPLICABLE,
S0182,14,platelets,N,2,142,143,reduce_percent,DM008
S0182,15,seizures,N,1,150,151,NOT APPLICABLE,
S0182,16,fatigue,N,1,159,160,NOT APPLICABLE,
S0182,17,blurred_vision,N,1,161,162,NOT APPLICABLE,
S0182,18,myalgia,N,2,189,196,NOT APPLICABLE,
S0182,19,hypophosphatemia,N,1,196,203,NOT APPLICABLE,
S0183,1,neutropenia,N,2,11,12,NOT APPLICABLE,
S0183,2,headache,N,2,20,21,NOT APPLICABLE,
S0183,3,thrombocytopenia,N,2,20,21,reduce_percent,DM008
S0183,4,seizures,N,2,39,40,NOT APPLICABLE,
S0183,5,alopecia,N,1,52,53,NOT APPLICABLE,
S0183,6,fatigue,N,2,57,58,NOT APPLICABLE,
S0183,7,muscle_weakness,N,2,57,58,NOT APPLICABLE,
S0183,8,neutrophil_count_decreased,N,1,77,78,NOT APPLICABLE,
S0183,9,hypocalcemia,N,2,105,106,NOT APPLICABLE,
S0183,10,sleeplessness,N,1,115,116,NOT APPLICABLE,
S0183,11,vomiting,N,1,129,130,NOT APPLICABLE,
S0183,12,dyspnea,N,2,132,133,NOT APPLICABLE,
S0183,13,neuropathy_-_sensory,N,1,135,136,NOT APPLICABLE,
S0183,14,coughing,N,1,141,142,NOT APPLICABLE,
S0183,15,hypernatremia,N,2,142,143,NOT APPLICABLE,
S0183,16,hydrocephalus,Y,3,161,163,NOT APPLICABLE,
S0183,17,hemoglobin_normal_12_16_gm,N,1,164,165,NOT APPLICABLE,
S0183,18,dry_skin,N,2,185,192,NOT APPLICABLE,
S0183,19,platelets,N,2,193,200,NOT APPLICABLE,
S0183,20,nausea,N,1,195,202,NOT APPLICABLE,
S0184,1,muscle_weakness,N,1,24,25,NOT APPLICABLE,
S0184,2,thrombocytopenia,N,2,46,47,reduce_percent,DM008
S0184,3,neuropathy_-_sensory,N,2,55,56,NOT APPLICABLE,
S0184,4,platelets,N,1,63,64,reduce_percent,DM008
S0184,5,hypertriglyceridemia,N,1,87,88,NOT APPLICABLE,
S0184,6,thrombosis,Y,3,117,119,NOT APPLICABLE,
S0184,7,neutrophil_count_decreased,N,1,123,124,NOT APPLICABLE,
S0184,8,seizures,N,1,128,129,NOT APPLICABLE,
S0184,9,anemia,N,1,165,166,NOT APPLICABLE,
S0184,10,alopecia,N,1,169,176,NOT APPLICABLE,
S0184,11,dyspnea,N,2,171,178,NOT APPLICABLE,
S0184,12,rhinitis,N,2,173,180,NOT APPLICABLE,
S0184,13,nausea,N,1,174,181,NOT APPLICABLE,
S0184,14,decreased_platelet_count,N,1,181,188,NOT APPLICABLE,
S0184,15,fatigue,N,2,185,192,NOT APPLICABLE,
S0184,16,hyperkalemia,N,1,187,194,NOT APPLICABLE,
S0185,1,constipation,N,2,18,19,NOT APPLICABLE,
S0185,2,neuropathy_-_sensory,N,1,30,31,NOT APPLICABLE,
S0185,3,catheter_related_infection,N,2,60,61,NOT APPLICABLE,
S0185,4,nausea,N,2,65,66,NOT APPLICABLE,
S0185,5,gastrointestinal,N,1,70,71,NOT APPLICABLE,
S0185,6,headache,N,1,72,73,NOT APPLICABLE,
S0185,7,dyspnea,N,2,79,80,NOT APPLICABLE,
S0185,8,fatigue,N,2,82,83,NOT APPLICABLE,
S0185,9,muscle_weakness,N,1,112,113,NOT APPLICABLE,
S0185,10,myalgia,N,2,114,115,NOT APPLICABLE,
S0185,11,hyperuricemia,N,1,141,142,NOT APPLICABLE,
S0185,12,hemoglobin_normal_12_16_gm,N,2,145,146,NOT APPLICABLE,
S0185,13,hydrocephalus,Y,3,152,154,NOT APPLICABLE,
S0185,14,neutropenia,N,2,155,156,NOT APPLICABLE,
S0185,15,hypernatremia,N,1,171,178,NOT APPLICABLE,
S0185,16,upper_respiratory_infections,N,1,172,179,NOT APPLICABLE,
S0185,17,platelets,N,1,178,185,NOT APPLICABLE,
S0185,18,neuropathy-motor,N,1,192,199,NOT APPLICABLE,
S0185,19,coughing,N,1,195,202,NOT APPLICABLE,
S0186,1,hypocalcemia,N,1,8,9,NOT APPLICABLE,
S0186,2,anorexia,N,1,12,13,NOT APPLICABLE,
S0186,3,sensory_neuropathy,N,2,27,28,NOT APPLICABLE,
S0186,4,sleeplessness,N,2,47,48,NOT APPLICABLE,
S0186,5,alopecia,N,1,55,56,NOT APPLICABLE,
S0186,6,seizures,N,1,60,61,NOT APPLICABLE,
S0186,7,dyspnea,N,1,61,62,NOT APPLICABLE,
S0186,8,platelets,N,1,71,72,reduce_percent,DM008
S0186,9,fatigue,N,2,74,75,NOT APPLICABLE,
S0186,10,coughing,N,1,78,79,NOT APPLICABLE,
S0186,11,sweating,N,2,78,79,NOT APPLICABLE,
S0186,12,hypoalbuminemia,N,2,86,87,NOT APPLICABLE,
S0186,13,hypernatremia,N,1,88,89,NOT APPLICABLE,
S0186,14,dizziness,N,2,98,99,NOT APPLICABLE,
S0186,15,dry_skin,N,1,99,100,NOT APPLICABLE,
S0186,16,neutropenia,N,1,102,103,NOT APPLICABLE,
S0186,17,myalgia,N,1,104,105,NOT APPLICABLE,
S0186,18,blurred_vision,N,2,107,108,NOT APPLICABLE,
S0186,19,diarrhea,N,2,121,122,NOT APPLICABLE,
S0186,20,leukocytes,N,1,125,126,NOT APPLICABLE,
S0186,21,depression_dominant,N,1,126,127,NOT APPLICABLE,
S0186,22,neutrophils,Y,3,134,136,NOT APPLICABLE,
S0186,23,arthralgia,N,2,142,143,NOT APPLICABLE,
S0186,24,hypophosphatemia,N,1,146,147,NOT APPLICABLE,
S0186,25,hemoglobin_normal_12_16_gm,N,1,150,151,NOT APPLICABLE,
S0186,26,gastrointestinal,N,2,156,157,NOT APPLICABLE,
S0186,27,hyperglycemia,N,2,157,158,NOT APPLICABLE,
S0186,28,constipation,N,1,171,178,NOT APPLICABLE,
S0186,29,nausea,N,1,184,191,NOT APPLICABLE,
S0186,30,neuropathy_-_motor,N,1,185,192,NOT APPLICABLE,
S0186,31,catheter_related_infection,N,2,192,199,NOT APPLICABLE,
S0187,1,muscle_weakness,N,2,19,20,NOT APPLICABLE,
S0187,2,neuropathy_-_sensory,N,2,27,28,NOT APPLICABLE,
S0187,3,hypernatremia,N,1,59,60,NOT APPLICABLE,
S0187,4,hemoglobin_normal_12_16_gm,N,1,69,70,NOT APPLICABLE,
S0187,5,nausea,N,2,85,86,NOT APPLICABLE,
S0187,6,neutropenia,N,1,110,111,NOT APPLICABLE,
S0187,7,dyspnea,N,2,140,141,NOT APPLICABLE,
S0187,8,headache,N,1,158,159,NOT APPLICABLE,
S0187,9,platelets,N,2,162,163,reduce_percent,DM008
S0187,10,neuropathy_-_motor,N,2,163,164,NOT APPLICABLE,
S0187,11,neutrophil_count_decreased,N,1,192,199,NOT APPLICABLE,
S0187,12,fatigue,N,1,198,205,NOT APPLICABLE,
S0188,1,catheter_related_infection,N,2,2,3,NOT APPLICABLE,
S0188,2,leukocytes_(total_wbc),N,2,2,3,NOT APPLICABLE,
S0188,3,hypocalcemia,N,2,15,16,NOT APPLICABLE,
S0188,4,myalgia,N,2,23,24,NOT APPLICABLE,
S0188,5,platelets,N,2,31,32,reduce_percent,DM008
S0188,6,decreased_platelet_count,N,2,47,48,reduce_percent,DM008
S0188,7,fatigue,N,2,63,64,NOT APPLICABLE,
S0188,8,depression_dominant,N,2,68,69,NOT APPLICABLE,
S0188,9,arthralgia,N,1,73,74,NOT APPLICABLE,
S0188,10,neutropenia,N,1,84,85,NOT APPLICABLE,
S0188,11,alopecia,N,2,88,89,NOT APPLICABLE,
S0188,12,anorexia,N,2,111,112,NOT APPLICABLE,
S0188,13,sweating,N,2,115,116,NOT APPLICABLE,
S0188,14,seizures,N,1,122,123,NOT APPLICABLE,
S0188,15,hypernatremia,N,2,124,125,NOT APPLICABLE,
S0188,16,coughing,N,1,142,143,NOT APPLICABLE,
S0188,17,neuropathy_-_motor,N,2,144,145,NOT APPLICABLE,
S0188,18,seizures,Y,3,151,153,NOT APPLICABLE,
S0188,19,sensory_neuropathy,N,2,160,161,NOT APPLICABLE,
S0188,20,hypoalbuminemia,N,2,168,175,NOT APPLICABLE,
S0188,21,sleeplessness,N,1,169,176,NOT APPLICABLE,
S0188,22,leukocytes,N,2,186,193,NOT APPLICABLE,
S0189,1,hypokalemia,Y,3,8,10,NOT APPLICABLE,
S0189,2,hemoglobin_normal_12_16_gm,N,2,31,32,NOT APPLICABLE,
S0189,3,upper_respiratory_infections,N,2,42,43,NOT APPLICABLE,
S0189,4,seizures,N,1,77,78,NOT APPLICABLE,
S0189,5,arthralgia,N,1,82,83,NOT APPLICABLE,
S0189,6,neuropathy_-_sensory,N,2,107,108,NOT APPLICABLE,
S0189,7,platelets,N,2,147,148,reduce_percent,DM008
S0189,8,nausea,N,1,147,148,NOT APPLICABLE,
S0189,9,muscle_weakness,N,1,147,148,NOT APPLICABLE,
S0189,10,hypernatremia,N,1,147,148,NOT APPLICABLE,
S0189,11,neutrophil_count_decreased,N,1,183,190,NOT APPLICABLE,
S0189,12,thrombocytopenia,N,1,187,194,NOT APPLICABLE,
S0189,13,dizziness,N,2,189,196,NOT APPLICABLE,
S0190,1,myalgia,N,2,2,3,NOT APPLICABLE,
S0190,2,thrombocytopenia,N,2,21,22,reduce_percent,DM008
S0190,3,neutrophil_count_decreased,N,1,29,30,NOT APPLICABLE,
S0190,4,alanine_aminotransferase_increased,N,1,36,37,NOT APPLICABLE,
S0190,5,platelets,N,1,52,53,reduce_percent,DM008
S0190,6,arthralgia,N,2,53,54,NOT APPLICABLE,
S0190,7,peripheral_motor_neuropathy,N,1,54,55,NOT APPLICABLE,
S0190,8,constipation,N,2,66,67,NOT APPLICABLE,
S0190,9,hyponatremia,N,1,68,69,NOT APPLICABLE,
S0190,10,vomiting,N,2,88,89,NOT APPLICABLE,
S0190,11,alopecia,N,2,101,102,NOT APPLICABLE,
S0190,12,anxiety,N,1,102,103,NOT APPLICABLE,
S0190,13,headache,N,1,115,116,NOT APPLICABLE,
S0190,14,seizures,N,1,128,129,NOT APPLICABLE,
S0190,15,neuropathy-motor,N,1,139,140,NOT APPLICABLE,
S0190,16,fatigue,N,1,145,146,NOT APPLICABLE,
S0190,17,neuropathy_-_sensory,N,2,161,162,NOT APPLICABLE,
S0190,18,muscle_weakness,N,2,163,164,NOT APPLICABLE,
S0190,19,dyspnea,N,2,177,184,NOT APPLICABLE,
S0190,20,neutropenia,N,1,177,184,NOT APPLICABLE,
S0190,21,gastrointestinal,N,1,186,193,NOT APPLICABLE,
S0190,22,nausea,N,1,191,198,NOT APPLICABLE,
S0190,23,anorexia,N,1,192,199,NOT APPLICABLE,
S0190,24,hemoglobin_normal_12_16_gm,N,1,195,202,NOT APPLICABLE,
S0191,1,arthralgia,N,1,19,20,NOT APPLICABLE,
S0191,2,fatigue,N,2,78,79,NOT APPLICABLE,
S0191,3,hemoglobin_normal_12_16_gm,N,2,79,80,NOT APPLICABLE,
S0191,4,neutrophil_count_decreased,N,1,93,94,NOT APPLICABLE,
S0191,5,neuropathy_-_sensory,N,1,100,101,NOT APPLICABLE,
S0191,6,platelets,N,2,120,121,reduce_percent,DM008
S0191,7,edema,N,1,122,123,NOT APPLICABLE,
S0191,8,thrombocytopenia,N,2,129,130,reduce_percent,DM008
S0191,9,muscle_weakness,N,1,152,153,NOT APPLICABLE,
S0191,10,alopecia,N,2,168,175,NOT APPLICABLE,
S0191,11,dyspnea,N,2,183,190,NOT APPLICABLE,
S0191,12,neutropenia,N,1,187,194,NOT APPLICABLE,
S0191,13,nausea,N,2,190,197,NOT APPLICABLE,
S0192,1,arthralgia,N,1,10,11,NOT APPLICABLE,
S0192,2,weight_loss,N,2,57,58,NOT APPLICABLE,
S0192,3,dyspnea,N,2,73,74,NOT APPLICABLE,
S0192,4,hemoglobin_normal_12_16_gm,N,2,76,77,NOT APPLICABLE,
S0192,5,neuropathy_-_sensory,N,1,91,92,NOT APPLICABLE,
S0192,6,gastrointestinal,N,1,98,99,NOT APPLICABLE,
S0192,7,decreased_platelet_count,N,2,101,102,reduce_percent,DM008
S0192,8,nausea,N,1,102,103,NOT APPLICABLE,
S0192,9,fatigue,N,2,109,110,NOT APPLICABLE,
S0192,10,seizures,N,1,112,113,NOT APPLICABLE,
S0192,11,anxiety,N,2,129,130,NOT APPLICABLE,
S0192,12,muscle_weakness,N,2,142,143,NOT APPLICABLE,
S0192,13,hypernatremia,N,1,143,144,NOT APPLICABLE,
S0192,14,platelets,N,2,163,164,reduce_percent,DM008
S0192,15,neutrophil_count_decreased,N,1,164,165,NOT APPLICABLE,
S0192,16,anorexia,N,1,165,166,NOT APPLICABLE,
S0192,17,neutropenia,N,1,180,187,NOT APPLICABLE,
S0192,18,anemia,N,1,188,195,NOT APPLICABLE,
S0192,19,vomiting,N,2,193,200,NOT APPLICABLE,
S0192,20,upper_respiratory_infections,N,1,198,205,NOT APPLICABLE,
S0193,1,platelets,N,1,12,13,reduce_percent,DM008
S0193,2,dry_skin,N,2,13,14,NOT APPLICABLE,
S0193,3,stomatitis,N,1,15,16,NOT APPLICABLE,
S0193,4,constipation,N,2,20,21,NOT APPLICABLE,
S0193,5,anemia,N,2,20,21,NOT APPLICABLE,
S0193,6,dyspnea,N,1,71,72,NOT APPLICABLE,
S0193,7,alopecia,N,2,72,73,NOT APPLICABLE,
S0193,8,hemoglobin_normal_12_16_gm,N,1,76,77,NOT APPLICABLE,
S0193,9,fatigue,N,2,78,79,NOT APPLICABLE,
S0193,10,neuropathy_-_motor,N,2,82,83,NOT APPLICABLE,
S0193,11,dizziness,N,1,83,84,NOT APPLICABLE,
S0193,12,muscle_weakness,N,2,97,98,NOT APPLICABLE,
S0193,13,catheter_related_infection,N,2,103,104,NOT APPLICABLE,
S0193,14,hypoalbuminemia,N,1,113,114,NOT APPLICABLE,
S0193,15,hypernatremia,N,2,127,128,NOT APPLICABLE,
S0193,16,myalgia,N,2,128,129,NOT APPLICABLE,
S0193,17,headache,N,1,147,148,NOT APPLICABLE,
S0193,18,vomiting,N,1,152,153,NOT APPLICABLE,
S0193,19,nausea,N,1,176,183,NOT APPLICABLE,
S0193,20,hypocalcemia,N,2,176,183,NOT APPLICABLE,
S0193,21,neuropathy_-_sensory,N,1,177,184,NOT APPLICABLE,
S0194,1,coughing,N,1,35,36,NOT APPLICABLE,
S0194,2,neutrophils,Y,3,39,41,NOT APPLICABLE,
S0194,3,alopecia,N,2,41,42,NOT APPLICABLE,
S0194,4,sensory_neuropathy,N,1,45,46,NOT APPLICABLE,
S0194,5,seizures,N,1,47,48,NOT APPLICABLE,
S0194,6,hypocalcemia,N,2,83,84,NOT APPLICABLE,
S0194,7,hypoalbuminemia,N,1,85,86,NOT APPLICABLE,
S0194,8,anorexia,N,1,90,91,NOT APPLICABLE,
S0194,9,hypophosphatemia,N,1,104,105,NOT APPLICABLE,
S0194,10,myalgia,N,1,108,109,NOT APPLICABLE,
S0194,11,catheter_related_infection,N,1,110,111,NOT APPLICABLE,
S0194,12,sleeplessness,N,2,113,114,NOT APPLICABLE,
S0194,13,depression_dominant,N,2,114,115,NOT APPLICABLE,
S0194,14,leukocytes,N,1,136,137,NOT APPLICABLE,
S0194,15,gastrointestinal,N,1,141,142,NOT APPLICABLE,
S0194,16,seizures,Y,3,147,149,NOT APPLICABLE,
S0194,17,hypernatremia,N,2,153,154,NOT APPLICABLE,
S0194,18,constipation,N,2,170,177,NOT APPLICABLE,
S0194,19,neuropathy_-_motor,N,2,185,192,NOT APPLICABLE,
S0194,20,arthralgia,N,1,190,197,NOT APPLICABLE,
S0195,1,nausea,N,1,2,3,NOT APPLICABLE,
S0195,2,neuropathy_-_sensory,N,2,25,26,NOT APPLICABLE,
S0195,3,depression_dominant,N,1,37,38,NOT APPLICABLE,
S0195,4,arthralgia,N,1,38,39,NOT APPLICABLE,
S0195,5,hemoglobin_normal_12_16_gm,N,1,50,51,NOT APPLICABLE,
S0195,6,vomiting,N,1,54,55,NOT APPLICABLE,
S0195,7,dyspnea,N,1,56,57,NOT APPLICABLE,
S0195,8,neutropenia,N,1,62,63,NOT APPLICABLE,
S0195,9,myalgia,N,2,81,82,NOT APPLICABLE,
S0195,10,hyperkalemia,N,1,85,86,NOT APPLICABLE,
S0195,11,anorexia,N,1,88,89,NOT APPLICABLE,
S0195,12,thrombocytopenia,N,1,89,90,reduce_percent,DM008
S0195,13,anemia,N,1,108,109,NOT APPLICABLE,
S0195,14,platelets,N,1,115,116,reduce_percent,DM008
S0195,15,fatigue,N,2,124,125,NOT APPLICABLE,
S0195,16,neutrophil_count_decreased,N,1,133,134,NOT APPLICABLE,
S0195,17,headache,N,2,143,144,NOT APPLICABLE,
S0195,18,coughing,N,2,154,155,NOT APPLICABLE,
S0195,19,hypokalemia,N,1,183,190,NOT APPLICABLE,
S0195,20,hypernatremia,N,2,186,193,NOT APPLICABLE,
S0195,21,muscle_weakness,N,2,195,202,NOT APPLICABLE,
S0196,1,hypernatremia,N,2,4,5,NOT APPLICABLE,
S0196,2,arthralgia,N,1,8,9,NOT APPLICABLE,
S0196,3,seizures,N,1,10,11,NOT APPLICABLE,
S0196,4,sensory_neuropathy,N,2,11,12,NOT APPLICABLE,
S0196,5,constipation,N,2,27,28,NOT APPLICABLE,
S0196,6,hemoglobin_normal_12_16_gm,N,1,27,28,NOT APPLICABLE,
S0196,7,neuropathy_-_motor,N,2,29,30,NOT APPLICABLE,
S0196,8,hypoalbuminemia,N,1,37,38,NOT APPLICABLE,
S0196,9,alopecia,N,1,47,48,NOT APPLICABLE,
S0196,10,myalgia,N,1,47,48,NOT APPLICABLE,
S0196,11,leukocytes,N,1,49,50,NOT APPLICABLE,
S0196,12,coughing,N,2,64,65,NOT APPLICABLE,
S0196,13,hypocalcemia,N,2,77,78,NOT APPLICABLE,
S0196,14,nausea,N,2,79,80,NOT APPLICABLE,
S0196,15,catheter_related_infection,N,2,82,83,NOT APPLICABLE,
S0196,16,depression_dominant,N,1,85,86,NOT APPLICABLE,
S0197,1,arthralgia,N,2,14,15,NOT APPLICABLE,
S0197,2,sensory_neuropathy,N,1,20,21,NOT APPLICABLE,
S0197,3,myalgia,N,2,61,62,NOT APPLICABLE,
S0197,4,hypocalcemia,N,1,94,95,NOT APPLICABLE,
S0197,5,seizures,N,1,104,105,NOT APPLICABLE,
S0197,6,depression_dominant,N,1,112,113,NOT APPLICABLE,
S0197,7,neuropathy_-_motor,N,1,125,126,NOT APPLICABLE,
S0197,8,leukocytes,N,1,139,140,NOT APPLICABLE,
S0197,9,hypoalbuminemia,N,1,145,146,NOT APPLICABLE,
S0197,10,hypernatremia,N,1,179,186,NOT APPLICABLE,
S0197,11,coughing,N,2,196,203,NOT APPLICABLE,
S0198,1,muscle_weakness,N,2,1,2,NOT APPLICABLE,
S0198,2,hemoglobin_normal_12_16_gm,N,1,4,5,NOT APPLICABLE,
S0198,3,upper_respiratory_infections,N,1,31,32,NOT APPLICABLE,
S0198,4,thrombosis/thrombus/embolism,Y,3,32,34,NOT APPLICABLE,
S0198,5,neutrophil_count_decreased,N,2,36,37,NOT APPLICABLE,
S0198,6,fatigue,N,2,59,60,NOT APPLICABLE,
S0198,7,platelets,N,2,59,60,reduce_percent,DM008
S0198,8,alopecia,N,1,67,68,NOT APPLICABLE,
S0198,9,arthralgia,N,1,67,68,NOT APPLICABLE,
S0198,10,dyspnea,N,1,89,90,NOT APPLICABLE,
S0198,11,neuropathy_-_motor,N,1,97,98,NOT APPLICABLE,
S0198,12,hypernatremia,N,2,99,100,NOT APPLICABLE,
S0198,13,allergic_rhinitis_disorder,N,2,103,104,NOT APPLICABLE,
S0198,14,neuropathy_-_sensory,N,2,123,124,NOT APPLICABLE,
S0198,15,anemia,N,1,160,161,NOT APPLICABLE,
S0198,16,sweating,N,2,167,168,NOT APPLICABLE,
S0199,1,depression_dominant,N,2,2,3,NOT APPLICABLE,
S0199,2,hypoalbuminemia,N,1,7,8,NOT APPLICABLE,
S0199,3,seizures,N,2,9,10,NOT APPLICABLE,
S0199,4,headache,N,1,11,12,NOT APPLICABLE,
S0199,5,catheter_related_infection,N,1,13,14,NOT APPLICABLE,
S0199,6,hypernatremia,N,2,14,15,NOT APPLICABLE,
S0199,7,coughing,N,1,16,17,NOT APPLICABLE,
S0199,8,sensory_neuropathy,N,1,36,37,NOT APPLICABLE,
S0199,9,gastrointestinal,N,2,43,44,NOT APPLICABLE,
S0199,10,myalgia,N,2,47,48,NOT APPLICABLE,
S0199,11,neuropathy_-_motor,N,1,48,49,NOT APPLICABLE,
S0199,12,leukocytes,N,2,49,50,NOT APPLICABLE,
S0199,13,blurred_vision,N,1,49,50,NOT APPLICABLE,
S0199,14,hypocalcemia,N,2,58,59,NOT APPLICABLE,
S0200,1,dizziness,N,1,3,4,NOT APPLICABLE,
S0200,2,alopecia,N,2,6,7,NOT APPLICABLE,
S0200,3,platelets,Y,3,15,17,reduce_percent,DM008
S0200,4,coughing,N,2,19,20,NOT APPLICABLE,
S0200,5,constipation,N,2,21,22,NOT APPLICABLE,
S0200,6,hemoglobin_normal_12_16_gm,N,2,24,25,NOT APPLICABLE,
S0200,7,gastrointestinal,N,1,24,25,NOT APPLICABLE,
S0200,8,hypophosphatemia,N,1,26,27,NOT APPLICABLE,
S0200,9,headache,N,2,27,28,NOT APPLICABLE,
S0200,10,neutropenia,N,2,40,41,NOT APPLICABLE,
S0200,11,hypocalcemia,N,2,46,47,NOT APPLICABLE,
S0200,12,platelets,N,2,49,50,reduce_percent,DM008
S0200,13,hypercholesterolemia,N,2,51,52,NOT APPLICABLE,
S0200,14,sweating,N,1,53,54,NOT APPLICABLE,
S0200,15,anemia,N,1,56,57,NOT APPLICABLE,
S0200,16,depression_dominant,N,2,57,58,NOT APPLICABLE,
S0200,17,hyperglycemia,N,2,76,77,NOT APPLICABLE,
S0200,18,hypoalbuminemia,N,2,80,81,NOT APPLICABLE,
S0200,19,anorexia,N,2,85,86,NOT APPLICABLE,
S0200,20,myalgia,N,2,92,93,NOT APPLICABLE,
S0200,21,hypernatremia,N,2,93,94,NOT APPLICABLE,
S0200,22,alanine_aminotransferase_increased,N,1,93,94,NOT APPLICABLE,
S0200,23,neutrophils,Y,3,100,102,NOT APPLICABLE,
S0200,24,hypokalemia,N,1,119,120,NOT APPLICABLE,
S0200,25,blurred_vision,N,1,121,122,NOT APPLICABLE,
S0200,26,arthralgia,N,2,133,134,NOT APPLICABLE,
S0200,27,fatigue,N,2,134,135,NOT APPLICABLE,
S0200,28,seizures,N,1,134,135,NOT APPLICABLE,
S0200,29,nausea,N,2,137,138,NOT APPLICABLE,
S0200,30,anxiety,N,2,137,138,NOT APPLICABLE,
S0200,31,dry_skin,N,2,139,140,NOT APPLICABLE,
S0200,32,catheter_related_infection,N,2,143,144,NOT APPLICABLE,
S0200,33,rhinitis,N,1,147,148,NOT APPLICABLE,
S0200,34,sensory_neuropathy,N,2,154,155,NOT APPLICABLE,
S0200,35,weight_loss,N,2,156,157,NOT APPLICABLE,
S0200,36,dyspnea,N,2,179,186,NOT APPLICABLE,
S0200,37,seizures,Y,3,183,197,NOT APPLICABLE,
S0200,38,leukocytes,N,2,190,197,NOT APPLICABLE,
S0200,39,neuropathy_-_motor,N,2,192,199,NOT APPLICABLE,
S0200,40,sleeplessness,N,1,195,202,NOT APPLICABLE,
S0201,1,alanine_aminotransferase_increased,N,1,3,4,NOT APPLICABLE,
S0201,2,hemoglobin_normal_12_16_gm,N,2,40,41,NOT APPLICABLE,
S0201,3,platelets,Y,3,42,44,reduce_percent,DM008
S0201,4,anorexia,N,1,57,58,NOT APPLICABLE,
S0201,5,arthralgia,N,2,65,66,NOT APPLICABLE,
S0201,6,dyspnea,N,2,76,77,NOT APPLICABLE,
S0201,7,hypernatremia,N,2,77,78,NOT APPLICABLE,
S0201,8,anxiety,N,1,77,78,NOT APPLICABLE,
S0201,9,peripheral_motor_neuropathy,N,2,81,82,NOT APPLICABLE,
S0201,10,nausea,N,1,89,90,NOT APPLICABLE,
S0201,11,vomiting,N,2,100,101,NOT APPLICABLE,
S0201,12,neutropenia,N,2,101,102,NOT APPLICABLE,
S0201,13,neutrophil_count_decreased,N,1,108,109,NOT APPLICABLE,
S0201,14,thrombocytopenia,N,2,141,142,reduce_percent,DM008
S0201,15,neuropathy_-_sensory,N,2,154,155,NOT APPLICABLE,
S0201,16,muscle_weakness,N,2,164,165,NOT APPLICABLE,
S0201,17,platelets,N,2,170,177,NOT APPLICABLE,
S0201,18,anemia,N,1,190,197,NOT APPLICABLE,
S0202,1,hemoglobin_normal_12_16_gm,N,2,2,3,NOT APPLICABLE,
S0202,2,sleeplessness,N,1,7,8,NOT APPLICABLE,
S0202,3,peripheral_motor_neuropathy,N,1,31,32,NOT APPLICABLE,
S0202,4,sweating,N,2,36,37,NOT APPLICABLE,
S0202,5,rhinitis,N,1,90,91,NOT APPLICABLE,
S0202,6,fatigue,N,2,94,95,NOT APPLICABLE,
S0202,7,muscle_weakness,N,1,99,100,NOT APPLICABLE,
S0202,8,anxiety,N,1,102,103,NOT APPLICABLE,
S0202,9,neuropathy_-_sensory,N,2,105,106,NOT APPLICABLE,
S0202,10,nausea,N,2,114,115,NOT APPLICABLE,
S0202,11,constipation,N,1,151,152,NOT APPLICABLE,
S0202,12,catheter_related_infection,N,1,151,152,NOT APPLICABLE,
S0202,13,hypernatremia,N,2,187,194,NOT APPLICABLE,
S0202,14,platelets,N,1,198,205,NOT APPLICABLE,
S0203,1,muscle_weakness,N,1,19,20,NOT APPLICABLE,
S0203,2,anemia,N,2,34,35,NOT APPLICABLE,
S0203,3,vomiting,N,2,36,37,NOT APPLICABLE,
S0203,4,anxiety,N,1,47,48,NOT APPLICABLE,
S0203,5,depression_dominant,N,1,68,69,NOT APPLICABLE,
S0203,6,hypocalcemia,N,2,86,87,NOT APPLICABLE,
S0203,7,platelets,N,1,89,90,reduce_percent,DM008
S0203,8,dry_skin,N,2,90,91,NOT APPLICABLE,
S0203,9,headache,N,2,94,95,NOT APPLICABLE,
S0203,10,diarrhea,N,1,101,102,NOT APPLICABLE,
S0203,11,neutropenia,N,1,110,111,NOT APPLICABLE,
S0203,12,upper_respiratory_infections,N,2,114,115,NOT APPLICABLE,
S0203,13,dyspnea,N,1,117,118,NOT APPLICABLE,
S0203,14,thrombocytopenia,N,1,119,120,reduce_percent,DM008
S0203,15,coughing,N,1,120,121,NOT APPLICABLE,
S0203,16,hypernatremia,N,1,129,130,NOT APPLICABLE,
S0203,17,fever,N,2,142,143,NOT APPLICABLE,
