STUDYID,USUBJID,ARMCD,AGE,SEX,RACE,ETHNIC,RFSTDTC_DAY,ENROLLMENT_DAY,TRTSDY,TRTEDY,EOTREAS,N_CYCLES,N_REDUCTIONS,N_HOLDS,RDI,ANY_SAE,ANY_GR3,DTHFL,DTHDY
BED-PSMA-411,S0001-P1,ARM1,65.87,male,white,not_hispanic_or_latino,1,24.3,1,1,completed planned procedures,0,0,0,,N,N,N,
BED-PSMA-411,S0001-P2,ARM2,65.87,male,white,not_hispanic_or_latino,1,24.3,1,10,completed planned procedures,1,0,0,1.0,N,N,N,
BED-PSMA-411,S0002-P1,ARM1,65.62,male,white,not_hispanic_or_latino,1,34.7,1,1,completed planned procedures,0,0,0,,N,N,N,
BED-PSMA-411,S0002-P2,ARM2,65.62,male,white,not_hispanic_or_latino,1,34.7,1,10,completed planned procedures,1,0,0,1.0,N,N,N,
BED-PSMA-411,S0003-P1,ARM1,97.13,male,white,not_hispanic_or_latino,1,40.2,1,1,completed planned procedures,0,0,0,,N,N,N,
BED-PSMA-411,S0003-P2,ARM2,97.13,male,white,not_hispanic_or_latino,1,40.2,1,10,completed planned procedures,1,0,0,1.0,N,N,N,
BED-PSMA-411,S0004-P1,ARM1,59.31,male,white,not_hispanic_or_latino,1,102.9,1,1,completed planned procedures,0,0,0,,N,N,N,
BED-PSMA-411,S0004-P2,ARM2,59.31,male,white,not_hispanic_or_latino,1,102.9,1,10,completed planned procedures,1,0,0,1.0,N,N,N,
BED-PSMA-411,S0005-P1,ARM1,64.44,male,white,not_hispanic_or_latino,1,115.8,1,1,completed planned procedures,0,0,0,,N,N,N,
BED-PSMA-411,S0005-P2,ARM2,64.44,male,white,not_hispanic_or_latino,1,115.8,1,10,completed planned procedures,1,0,0,1.0,N,N,N,
BED-PSMA-411,S0006-P1,ARM1,58.82,male,asian,not_hispanic_or_latino,1,252.5,1,1,completed planned procedures,0,0,0,,N,N,N,
BED-PSMA-411,S0006-P2,ARM2,58.82,male,asian,not_hispanic_or_latino,1,252.5,1,10,completed planned procedures,1,0,0,1.0,N,N,N,
BED-PSMA-411,S0007-P1,ARM1,75.08,male,white,unknown_or_not_reported,1,273.4,1,1,completed planned procedures,0,0,0,,N,N,N,
BED-PSMA-411,S0007-P2,ARM2,75.08,male,white,unknown_or_not_reported,1,273.4,1,10,completed planned procedures,1,0,0,1.0,N,N,N,
BED-PSMA-411,S0008-P1,ARM1,52.9,male,black_or_african_american,not_hispanic_or_latino,1,275.3,1,1,completed planned procedures,0,0,0,,N,N,N,
BED-PSMA-411,S0008-P2,ARM2,52.9,male,black_or_african_american,not_hispanic_or_latino,1,275.3,1,10,completed planned procedures,1,0,0,1.0,N,N,N,
BED-PSMA-411,S0009-P1,ARM1,48.22,male,white,not_hispanic_or_latino,1,286.5,1,1,completed planned procedures,0,0,0,,N,N,N,
BED-PSMA-411,S0009-P2,ARM2,48.22,male,white,not_hispanic_or_latino,1,286.5,1,10,completed planned procedures,1,0,0,1.0,N,N,N,
BED-PSMA-411,S0010-P1,ARM1,40.0,male,asian,not_hispanic_or_latino,1,293.3,1,1,completed planned procedures,0,0,0,,N,N,N,
BED-PSMA-411,S0010-P2,ARM2,40.0,male,asian,not_hispanic_or_latino,1,293.3,1,10,completed planned procedures,1,0,0,1.0,N,N,N,
BED-PSMA-411,S0011-P1,ARM1,73.33,male,asian,not_hispanic_or_latino,1,321.9,1,1,completed planned procedures,0,0,0,,N,N,N,
BED-PSMA-411,S0011-P2,ARM2,73.33,male,asian,not_hispanic_or_latino,1,321.9,1,10,completed planned procedures,1,0,0,1.0,N,N,N,
BED-PSMA-411,S0012-P1,ARM1,66.51,male,white,not_hispanic_or_latino,1,397.9,1,1,completed planned procedures,0,0,0,,N,N,N,
BED-PSMA-411,S0012-P2,ARM2,66.51,male,white,not_hispanic_or_latino,1,397.9,1,10,completed planned procedures,1,0,0,1.0,N,N,N,
BED-PSMA-411,S0013-P1,ARM1,71.89,male,asian,hispanic_or_latino,1,408.6,1,1,completed planned procedures,0,0,0,,N,N,N,
BED-PSMA-411,S0013-P2,ARM2,71.89,male,asian,hispanic_or_latino,1,408.6,1,10,completed planned procedures,1,0,0,1.0,N,N,N,
BED-PSMA-411,S0014-P1,ARM1,60.74,male,white,not_hispanic_or_latino,1,426.8,1,1,completed planned procedures,0,0,0,,N,N,N,
BED-PSMA-411,S0014-P2,ARM2,60.74,male,white,not_hispanic_or_latino,1,426.8,1,10,completed planned procedures,1,0,0,1.0,N,N,N,
BED-PSMA-411,S0015-P1,ARM1,55.08,male,white,not_hispanic_or_latino,1,477.9,1,1,completed planned procedures,0,0,0,,N,N,N,
BED-PSMA-411,S0015-P2,ARM2,55.08,male,white,not_hispanic_or_latino,1,477.9,1,10,completed planned procedures,1,0,0,1.0,N,N,N,
BED-PSMA-411,S0016-P1,ARM1,66.96,male,white,not_hispanic_or_latino,1,489.7,1,1,completed planned procedures,0,0,0,,N,N,N,
BED-PSMA-411,S0016-P2,ARM2,66.96,male,white,not_hispanic_or_latino,1,489.7,1,10,completed planned procedures,1,0,0,1.0,N,N,N,
BED-PSMA-411,S0017-P1,ARM1,77.32,male,more_than_one_race,not_hispanic_or_latino,1,505.7,1,1,completed planned procedures,0,0,0,,N,N,N,
BED-PSMA-411,S0017-P2,ARM2,77.32,male,more_than_one_race,not_hispanic_or_latino,1,505.7,1,10,completed planned procedures,1,0,0,1.0,N,N,N,
BED-PSMA-411,S0018-P1,ARM1,51.9,male,white,not_hispanic_or_latino,1,572.5,1,1,completed planned procedures,0,0,0,,N,N,N,
BED-PSMA-411,S0018-P2,ARM2,51.9,male,white,not_hispanic_or_latino,1,572.5,1,10,completed planned procedures,1,0,0,1.0,N,N,N,
BED-PSMA-411,S0019-P1,ARM1,70.99,male,white,not_hispanic_or_latino,1,617.3,1,1,completed planned procedures,0,0,0,,N,N,N,
BED-PSMA-411,S0019-P2,ARM2,70.99,male,white,not_hispanic_or_latino,1,617.3,1,10,completed planned procedures,1,0,0,1.0,N,N,N,
BED-PSMA-411,S0020-P1,ARM1,79.7,male,white,not_hispanic_or_latino,1,625.8,1,1,completed planned procedures,0,0,0,,N,N,N,
BED-PSMA-411,S0020-P2,ARM2,79.7,male,white,not_hispanic_or_latino,1,625.8,1,10,completed planned procedures,1,0,0,1.0,N,N,N,
BED-PSMA-411,S0021-P1,ARM1,67.08,male,white,not_hispanic_or_latino,1,649.8,1,1,completed planned procedures,0,0,0,,N,N,N,
BED-PSMA-411,S0021-P2,ARM2,67.08,male,white,not_hispanic_or_latino,1,649.8,1,10,completed planned procedures,1,0,0,1.0,N,N,N,
BED-PSMA-411,S0022-P1,ARM1,53.62,male,black_or_african_american,not_hispanic_or_latino,1,718.4,1,1,completed planned procedures,0,0,0,,N,N,N,
BED-PSMA-411,S0022-P2,ARM2,53.62,male,black_or_african_american,not_hispanic_or_latino,1,718.4,1,10,completed planned procedures,1,0,0,1.0,N,N,N,
BED-PSMA-411,S0023-P1,ARM1,65.25,male,white,not_hispanic_or_latino,1,726.3,1,1,completed planned procedures,0,0,0,,N,N,N,
BED-PSMA-411,S0023-P2,ARM2,65.25,male,white,not_hispanic_or_latino,1,726.3,1,6,"withdrawal (subject, loss to follow-up or physician decision)",1,0,0,1.0,N,N,N,
BED-PSMA-411,S0024-P1,ARM1,49.54,male,white,not_hispanic_or_latino,1,744.1,1,1,completed planned procedures,0,0,0,,N,N,N,
BED-PSMA-411,S0024-P2,ARM2,49.54,male,white,not_hispanic_or_latino,1,744.1,1,5,disease progression,1,0,0,1.0,N,N,N,
BED-PSMA-411,S0025-P1,ARM1,63.37,male,white,not_hispanic_or_latino,1,746.6,1,1,completed planned procedures,0,0,0,,N,N,N,
BED-PSMA-411,S0025-P2,ARM2,63.37,male,white,not_hispanic_or_latino,1,746.6,1,10,completed planned procedures,1,0,0,1.0,N,N,N,
BED-PSMA-411,S0026-P1,ARM1,52.7,male,unknown_or_not_reported,not_hispanic_or_latino,1,764.8,1,1,completed planned procedures,0,0,0,,N,N,N,
BED-PSMA-411,S0026-P2,ARM2,52.7,male,unknown_or_not_reported,not_hispanic_or_latino,1,764.8,1,10,completed planned procedures,1,0,0,1.0,N,N,N,
BED-PSMA-411,S0027-P1,ARM1,55.45,male,white,not_hispanic_or_latino,1,771.1,1,1,completed planned procedures,0,0,0,,N,N,N,
BED-PSMA-411,S0027-P2,ARM2,55.45,male,white,not_hispanic_or_latino,1,771.1,1,10,completed planned procedures,1,0,0,1.0,N,N,N,
BED-PSMA-411,S0028-P1,ARM1,82.1,male,white,not_hispanic_or_latino,1,780.6,1,1,completed planned procedures,0,0,0,,N,N,N,
BED-PSMA-411,S0028-P2,ARM2,82.1,male,white,not_hispanic_or_latino,1,780.6,1,10,completed planned procedures,1,0,0,1.0,N,N,N,
BED-PSMA-411,S0029-P1,ARM1,40.04,male,white,not_hispanic_or_latino,1,799.1,1,1,completed planned procedures,0,0,0,,N,N,N,
BED-PSMA-411,S0029-P2,ARM2,40.04,male,white,not_hispanic_or_latino,1,799.1,1,10,completed planned procedures,1,0,0,1.0,N,N,N,
BED-PSMA-411,S0030-P1,ARM1,64.13,male,white,not_hispanic_or_latino,1,806.3,1,1,completed planned procedures,0,0,0,,N,N,N,
BED-PSMA-411,S0030-P2,ARM2,64.13,male,white,not_hispanic_or_latino,1,806.3,1,10,completed planned procedures,1,0,0,1.0,N,N,N,
BED-PSMA-411,S0031-P1,ARM1,61.57,male,white,not_hispanic_or_latino,1,809.4,1,1,completed planned procedures,0,0,0,,N,N,N,
BED-PSMA-411,S0031-P2,ARM2,61.57,male,white,not_hispanic_or_latino,1,809.4,1,10,completed planned procedures,1,0,0,1.0,N,N,N,
BED-PSMA-411,S0032-P1,ARM1,59.87,male,white,not_hispanic_or_latino,1,831.1,1,1,completed planned procedures,0,0,0,,N,N,N,
BED-PSMA-411,S0032-P2,ARM2,59.87,male,white,not_hispanic_or_latino,1,831.1,1,10,completed planned procedures,1,0,0,1.0,N,N,N,
BED-PSMA-411,S0033-P1,ARM1,64.1,male,white,unknown_or_not_reported,1,867.3,1,1,completed planned procedures,0,0,0,,N,N,N,
BED-PSMA-411,S0033-P2,ARM2,64.1,male,white,unknown_or_not_reported,1,867.3,1,10,completed planned procedures,1,0,0,1.0,N,N,N,
BED-PSMA-411,S0034-P1,ARM1,65.13,male,white,not_hispanic_or_latino,1,875.4,1,1,completed planned procedures,0,0,0,,N,N,N,
BED-PSMA-411,S0034-P2,ARM2,65.13,male,white,not_hispanic_or_latino,1,875.4,1,10,completed planned procedures,1,0,0,1.0,N,N,N,
BED-PSMA-411,S0035-P1,ARM1,71.86,male,white,not_hispanic_or_latino,1,883.9,1,1,completed planned procedures,0,0,0,,N,N,N,
BED-PSMA-411,S0035-P2,ARM2,71.86,male,white,not_hispanic_or_latino,1,883.9,1,10,completed planned procedures,1,0,0,1.0,N,N,N,
BED-PSMA-411,S0036-P1,ARM1,60.57,male,white,not_hispanic_or_latino,1,893.9,1,1,completed planned procedures,0,0,0,,N,N,N,
BED-PSMA-411,S0036-P2,ARM2,60.57,male,white,not_hispanic_or_latino,1,893.9,1,10,completed planned procedures,1,0,0,1.0,N,N,N,
BED-PSMA-411,S0037-P1,ARM1,84.42,male,white,not_hispanic_or_latino,1,946.9,1,1,completed planned procedures,0,0,0,,N,N,N,
BED-PSMA-411,S0037-P2,ARM2,84.42,male,white,not_hispanic_or_latino,1,946.9,1,10,completed planned procedures,1,0,0,1.0,N,N,N,
BED-PSMA-411,S0038-P1,ARM1,63.7,male,white,not_hispanic_or_latino,1,1010.6,1,1,completed planned procedures,0,0,0,,N,N,N,
BED-PSMA-411,S0038-P2,ARM2,63.7,male,white,not_hispanic_or_latino,1,1010.6,1,10,completed planned procedures,1,0,0,1.0,N,N,N,
BED-PSMA-411,S0039-P1,ARM1,52.51,male,white,not_hispanic_or_latino,1,1015.0,1,1,completed planned procedures,0,0,0,,N,N,N,
BED-PSMA-411,S0039-P2,ARM2,52.51,male,white,not_hispanic_or_latino,1,1015.0,1,10,completed planned procedures,1,0,0,1.0,N,N,N,
BED-PSMA-411,S0040-P1,ARM1,62.19,male,white,not_hispanic_or_latino,1,1076.6,1,1,completed planned procedures,0,0,0,,N,N,N,
BED-PSMA-411,S0040-P2,ARM2,62.19,male,white,not_hispanic_or_latino,1,1076.6,1,10,completed planned procedures,1,0,0,1.0,N,N,N,
BED-PSMA-411,S0041-P1,ARM1,72.85,male,white,not_hispanic_or_latino,1,1115.8,1,1,completed planned procedures,0,0,0,,N,N,N,
BED-PSMA-411,S0041-P2,ARM2,72.85,male,white,not_hispanic_or_latino,1,1115.8,1,10,completed planned procedures,1,0,0,1.0,N,N,N,
BED-PSMA-411,S0042-P1,ARM1,65.95,male,white,not_hispanic_or_latino,1,1175.8,1,1,completed planned procedures,0,0,0,,N,N,N,
BED-PSMA-411,S0042-P2,ARM2,65.95,male,white,not_hispanic_or_latino,1,1175.8,1,10,completed planned procedures,1,0,0,1.0,N,N,N,
BED-PSMA-411,S0043-P1,ARM1,55.33,male,asian,not_hispanic_or_latino,1,1200.4,1,1,completed planned procedures,0,0,0,,N,N,N,
BED-PSMA-411,S0043-P2,ARM2,55.33,male,asian,not_hispanic_or_latino,1,1200.4,1,10,completed planned procedures,1,0,0,1.0,N,N,N,
BED-PSMA-411,S0044-P1,ARM1,62.99,male,white,not_hispanic_or_latino,1,1283.3,1,1,completed planned procedures,0,0,0,,N,N,N,
BED-PSMA-411,S0044-P2,ARM2,62.99,male,white,not_hispanic_or_latino,1,1283.3,1,6,"withdrawal (subject, loss to follow-up or physician decision)",1,0,0,1.0,N,N,N,
BED-PSMA-411,S0045-P1,ARM1,74.41,male,white,not_hispanic_or_latino,1,1323.0,1,1,completed planned procedures,0,0,0,,N,N,N,
BED-PSMA-411,S0045-P2,ARM2,74.41,male,white,not_hispanic_or_latino,1,1323.0,1,10,completed planned procedures,1,0,0,1.0,N,N,N,
BED-PSMA-411,S0046-P1,ARM1,64.79,male,white,not_hispanic_or_latino,1,1345.5,1,1,completed planned procedures,0,0,0,,N,N,N,
BED-PSMA-411,S0046-P2,ARM2,64.79,male,white,not_hispanic_or_latino,1,1345.5,1,10,completed planned procedures,1,0,0,1.0,N,N,N,
BED-PSMA-411,S0047-P1,ARM1,50.79,male,asian,not_hispanic_or_latino,1,1347.8,1,1,completed planned procedures,0,0,0,,N,N,N,
BED-PSMA-411,S0047-P2,ARM2,50.79,male,asian,not_hispanic_or_latino,1,1347.8,1,10,completed planned procedures,1,0,0,1.0,N,N,N,
BED-PSMA-411,S0048-P1,ARM1,56.32,male,white,not_hispanic_or_latino,1,1367.6,1,1,completed planned procedures,0,0,0,,N,N,N,
BED-PSMA-411,S0048-P2,ARM2,56.32,male,white,not_hispanic_or_latino,1,1367.6,1,10,completed planned procedures,1,0,0,1.0,N,N,N,
BED-PSMA-411,S0049-P1,ARM1,44.4,male,white,not_hispanic_or_latino,1,1539.4,1,1,completed planned procedures,0,0,0,,N,N,N,
BED-PSMA-411,S0049-P2,ARM2,44.4,male,white,not_hispanic_or_latino,1,1539.4,1,10,completed planned procedures,1,0,0,1.0,N,N,N,
BED-PSMA-411,S0050-P1,ARM1,71.77,male,white,not_hispanic_or_latino,1,1558.2,1,1,completed planned procedures,0,0,0,,N,N,N,
BED-PSMA-411,S0050-P2,ARM2,71.77,male,white,not_hispanic_or_latino,1,1558.2,1,10,completed planned procedures,1,0,0,1.0,N,N,N,
BED-PSMA-411,S0051-P1,ARM1,61.72,male,white,not_hispanic_or_latino,1,1591.7,1,1,completed planned procedures,0,0,0,,N,N,N,
BED-PSMA-411,S0051-P2,ARM2,61.72,male,white,not_hispanic_or_latino,1,1591.7,1,10,completed planned procedures,1,0,0,1.0,N,N,N,
BED-PSMA-411,S0052-P1,ARM1,57.88,male,white,not_hispanic_or_latino,1,1642.3,1,1,completed planned procedures,0,0,0,,N,N,N,
BED-PSMA-411,S0052-P2,ARM2,57.88,male,white,not_hispanic_or_latino,1,1642.3,1,10,completed planned procedures,1,0,0,1.0,N,N,N,
