USUBJID,ARMCD,PARAMCD,PARAM,AVAL_DAYS,CNSR,EVNTDESC
S0001-P1,ARM1,PFS,Progression-free survival (detected at assessment),1,1,censored at last tumour assessment
S0001-P1,ARM1,OS,Overall survival (death in the simulated horizon),1,1,censored at last simulated contact
S0001-P2,ARM2,PFS,Progression-free survival (detected at assessment),10,1,censored at last tumour assessment
S0001-P2,ARM2,OS,Overall survival (death in the simulated horizon),10,1,censored at last simulated contact
S0002-P1,ARM1,PFS,Progression-free survival (detected at assessment),1,1,censored at last tumour assessment
S0002-P1,ARM1,OS,Overall survival (death in the simulated horizon),1,1,censored at last simulated contact
S0002-P2,ARM2,PFS,Progression-free survival (detected at assessment),10,1,censored at last tumour assessment
S0002-P2,ARM2,OS,Overall survival (death in the simulated horizon),10,1,censored at last simulated contact
S0003-P1,ARM1,PFS,Progression-free survival (detected at assessment),1,1,censored at last tumour assessment
S0003-P1,ARM1,OS,Overall survival (death in the simulated horizon),1,1,censored at last simulated contact
S0003-P2,ARM2,PFS,Progression-free survival (detected at assessment),10,1,censored at last tumour assessment
S0003-P2,ARM2,OS,Overall survival (death in the simulated horizon),10,1,censored at last simulated contact
S0004-P1,ARM1,PFS,Progression-free survival (detected at assessment),1,1,censored at last tumour assessment
S0004-P1,ARM1,OS,Overall survival (death in the simulated horizon),1,1,censored at last simulated contact
S0004-P2,ARM2,PFS,Progression-free survival (detected at assessment),10,1,censored at last tumour assessment
S0004-P2,ARM2,OS,Overall survival (death in the simulated horizon),10,1,censored at last simulated contact
S0005-P1,ARM1,PFS,Progression-free survival (detected at assessment),1,1,censored at last tumour assessment
S0005-P1,ARM1,OS,Overall survival (death in the simulated horizon),1,1,censored at last simulated contact
S0005-P2,ARM2,PFS,Progression-free survival (detected at assessment),10,1,censored at last tumour assessment
S0005-P2,ARM2,OS,Overall survival (death in the simulated horizon),10,1,censored at last simulated contact
S0006-P1,ARM1,PFS,Progression-free survival (detected at assessment),1,1,censored at last tumour assessment
S0006-P1,ARM1,OS,Overall survival (death in the simulated horizon),1,1,censored at last simulated contact
S0006-P2,ARM2,PFS,Progression-free survival (detected at assessment),10,1,censored at last tumour assessment
S0006-P2,ARM2,OS,Overall survival (death in the simulated horizon),10,1,censored at last simulated contact
S0007-P1,ARM1,PFS,Progression-free survival (detected at assessment),1,1,censored at last tumour assessment
S0007-P1,ARM1,OS,Overall survival (death in the simulated horizon),1,1,censored at last simulated contact
S0007-P2,ARM2,PFS,Progression-free survival (detected at assessment),10,1,censored at last tumour assessment
S0007-P2,ARM2,OS,Overall survival (death in the simulated horizon),10,1,censored at last simulated contact
S0008-P1,ARM1,PFS,Progression-free survival (detected at assessment),1,1,censored at last tumour assessment
S0008-P1,ARM1,OS,Overall survival (death in the simulated horizon),1,1,censored at last simulated contact
S0008-P2,ARM2,PFS,Progression-free survival (detected at assessment),10,1,censored at last tumour assessment
S0008-P2,ARM2,OS,Overall survival (death in the simulated horizon),10,1,censored at last simulated contact
S0009-P1,ARM1,PFS,Progression-free survival (detected at assessment),1,1,censored at last tumour assessment
S0009-P1,ARM1,OS,Overall survival (death in the simulated horizon),1,1,censored at last simulated contact
S0009-P2,ARM2,PFS,Progression-free survival (detected at assessment),10,1,censored at last tumour assessment
S0009-P2,ARM2,OS,Overall survival (death in the simulated horizon),10,1,censored at last simulated contact
S0010-P1,ARM1,PFS,Progression-free survival (detected at assessment),1,1,censored at last tumour assessment
S0010-P1,ARM1,OS,Overall survival (death in the simulated horizon),1,1,censored at last simulated contact
S0010-P2,ARM2,PFS,Progression-free survival (detected at assessment),10,1,censored at last tumour assessment
S0010-P2,ARM2,OS,Overall survival (death in the simulated horizon),10,1,censored at last simulated contact
S0011-P1,ARM1,PFS,Progression-free survival (detected at assessment),1,1,censored at last tumour assessment
S0011-P1,ARM1,OS,Overall survival (death in the simulated horizon),1,1,censored at last simulated contact
S0011-P2,ARM2,PFS,Progression-free survival (detected at assessment),10,1,censored at last tumour assessment
S0011-P2,ARM2,OS,Overall survival (death in the simulated horizon),10,1,censored at last simulated contact
S0012-P1,ARM1,PFS,Progression-free survival (detected at assessment),1,1,censored at last tumour assessment
S0012-P1,ARM1,OS,Overall survival (death in the simulated horizon),1,1,censored at last simulated contact
S0012-P2,ARM2,PFS,Progression-free survival (detected at assessment),10,1,censored at last tumour assessment
S0012-P2,ARM2,OS,Overall survival (death in the simulated horizon),10,1,censored at last simulated contact
S0013-P1,ARM1,PFS,Progression-free survival (detected at assessment),1,1,censored at last tumour assessment
S0013-P1,ARM1,OS,Overall survival (death in the simulated horizon),1,1,censored at last simulated contact
S0013-P2,ARM2,PFS,Progression-free survival (detected at assessment),10,1,censored at last tumour assessment
S0013-P2,ARM2,OS,Overall survival (death in the simulated horizon),10,1,censored at last simulated contact
S0014-P1,ARM1,PFS,Progression-free survival (detected at assessment),1,1,censored at last tumour assessment
S0014-P1,ARM1,OS,Overall survival (death in the simulated horizon),1,1,censored at last simulated contact
S0014-P2,ARM2,PFS,Progression-free survival (detected at assessment),10,1,censored at last tumour assessment
S0014-P2,ARM2,OS,Overall survival (death in the simulated horizon),10,1,censored at last simulated contact
S0015-P1,ARM1,PFS,Progression-free survival (detected at assessment),1,1,censored at last tumour assessment
S0015-P1,ARM1,OS,Overall survival (death in the simulated horizon),1,1,censored at last simulated contact
S0015-P2,ARM2,PFS,Progression-free survival (detected at assessment),10,1,censored at last tumour assessment
S0015-P2,ARM2,OS,Overall survival (death in the simulated horizon),10,1,censored at last simulated contact
S0016-P1,ARM1,PFS,Progression-free survival (detected at assessment),1,1,censored at last tumour assessment
S0016-P1,ARM1,OS,Overall survival (death in the simulated horizon),1,1,censored at last simulated contact
S0016-P2,ARM2,PFS,Progression-free survival (detected at assessment),10,1,censored at last tumour assessment
S0016-P2,ARM2,OS,Overall survival (death in the simulated horizon),10,1,censored at last simulated contact
S0017-P1,ARM1,PFS,Progression-free survival (detected at assessment),1,1,censored at last tumour assessment
S0017-P1,ARM1,OS,Overall survival (death in the simulated horizon),1,1,censored at last simulated contact
S0017-P2,ARM2,PFS,Progression-free survival (detected at assessment),10,1,censored at last tumour assessment
S0017-P2,ARM2,OS,Overall survival (death in the simulated horizon),10,1,censored at last simulated contact
S0018-P1,ARM1,PFS,Progression-free survival (detected at assessment),1,1,censored at last tumour assessment
S0018-P1,ARM1,OS,Overall survival (death in the simulated horizon),1,1,censored at last simulated contact
S0018-P2,ARM2,PFS,Progression-free survival (detected at assessment),10,1,censored at last tumour assessment
S0018-P2,ARM2,OS,Overall survival (death in the simulated horizon),10,1,censored at last simulated contact
S0019-P1,ARM1,PFS,Progression-free survival (detected at assessment),1,1,censored at last tumour assessment
S0019-P1,ARM1,OS,Overall survival (death in the simulated horizon),1,1,censored at last simulated contact
S0019-P2,ARM2,PFS,Progression-free survival (detected at assessment),10,1,censored at last tumour assessment
S0019-P2,ARM2,OS,Overall survival (death in the simulated horizon),10,1,censored at last simulated contact
S0020-P1,ARM1,PFS,Progression-free survival (detected at assessment),1,1,censored at last tumour assessment
S0020-P1,ARM1,OS,Overall survival (death in the simulated horizon),1,1,censored at last simulated contact
S0020-P2,ARM2,PFS,Progression-free survival (detected at assessment),10,1,censored at last tumour assessment
S0020-P2,ARM2,OS,Overall survival (death in the simulated horizon),10,1,censored at last simulated contact
S0021-P1,ARM1,PFS,Progression-free survival (detected at assessment),1,1,censored at last tumour assessment
S0021-P1,ARM1,OS,Overall survival (death in the simulated horizon),1,1,censored at last simulated contact
S0021-P2,ARM2,PFS,Progression-free survival (detected at assessment),10,1,censored at last tumour assessment
S0021-P2,ARM2,OS,Overall survival (death in the simulated horizon),10,1,censored at last simulated contact
S0022-P1,ARM1,PFS,Progression-free survival (detected at assessment),1,1,censored at last tumour assessment
S0022-P1,ARM1,OS,Overall survival (death in the simulated horizon),1,1,censored at last simulated contact
S0022-P2,ARM2,PFS,Progression-free survival (detected at assessment),10,1,censored at last tumour assessment
S0022-P2,ARM2,OS,Overall survival (death in the simulated horizon),10,1,censored at last simulated contact
S0023-P1,ARM1,PFS,Progression-free survival (detected at assessment),1,1,censored at last tumour assessment
S0023-P1,ARM1,OS,Overall survival (death in the simulated horizon),1,1,censored at last simulated contact
S0023-P2,ARM2,PFS,Progression-free survival (detected at assessment),6,1,censored at last tumour assessment
S0023-P2,ARM2,OS,Overall survival (death in the simulated horizon),6,1,censored at last simulated contact
S0024-P1,ARM1,PFS,Progression-free survival (detected at assessment),1,1,censored at last tumour assessment
S0024-P1,ARM1,OS,Overall survival (death in the simulated horizon),1,1,censored at last simulated contact
S0024-P2,ARM2,PFS,Progression-free survival (detected at assessment),5,0,progression detected at scheduled tumour assessment
S0024-P2,ARM2,OS,Overall survival (death in the simulated horizon),5,1,censored at last simulated contact
S0025-P1,ARM1,PFS,Progression-free survival (detected at assessment),1,1,censored at last tumour assessment
S0025-P1,ARM1,OS,Overall survival (death in the simulated horizon),1,1,censored at last simulated contact
S0025-P2,ARM2,PFS,Progression-free survival (detected at assessment),10,1,censored at last tumour assessment
S0025-P2,ARM2,OS,Overall survival (death in the simulated horizon),10,1,censored at last simulated contact
S0026-P1,ARM1,PFS,Progression-free survival (detected at assessment),1,1,censored at last tumour assessment
S0026-P1,ARM1,OS,Overall survival (death in the simulated horizon),1,1,censored at last simulated contact
S0026-P2,ARM2,PFS,Progression-free survival (detected at assessment),10,1,censored at last tumour assessment
S0026-P2,ARM2,OS,Overall survival (death in the simulated horizon),10,1,censored at last simulated contact
S0027-P1,ARM1,PFS,Progression-free survival (detected at assessment),1,1,censored at last tumour assessment
S0027-P1,ARM1,OS,Overall survival (death in the simulated horizon),1,1,censored at last simulated contact
S0027-P2,ARM2,PFS,Progression-free survival (detected at assessment),10,1,censored at last tumour assessment
S0027-P2,ARM2,OS,Overall survival (death in the simulated horizon),10,1,censored at last simulated contact
S0028-P1,ARM1,PFS,Progression-free survival (detected at assessment),1,1,censored at last tumour assessment
S0028-P1,ARM1,OS,Overall survival (death in the simulated horizon),1,1,censored at last simulated contact
S0028-P2,ARM2,PFS,Progression-free survival (detected at assessment),10,1,censored at last tumour assessment
S0028-P2,ARM2,OS,Overall survival (death in the simulated horizon),10,1,censored at last simulated contact
S0029-P1,ARM1,PFS,Progression-free survival (detected at assessment),1,1,censored at last tumour assessment
S0029-P1,ARM1,OS,Overall survival (death in the simulated horizon),1,1,censored at last simulated contact
S0029-P2,ARM2,PFS,Progression-free survival (detected at assessment),10,1,censored at last tumour assessment
S0029-P2,ARM2,OS,Overall survival (death in the simulated horizon),10,1,censored at last simulated contact
S0030-P1,ARM1,PFS,Progression-free survival (detected at assessment),1,1,censored at last tumour assessment
S0030-P1,ARM1,OS,Overall survival (death in the simulated horizon),1,1,censored at last simulated contact
S0030-P2,ARM2,PFS,Progression-free survival (detected at assessment),10,1,censored at last tumour assessment
S0030-P2,ARM2,OS,Overall survival (death in the simulated horizon),10,1,censored at last simulated contact
S0031-P1,ARM1,PFS,Progression-free survival (detected at assessment),1,1,censored at last tumour assessment
S0031-P1,ARM1,OS,Overall survival (death in the simulated horizon),1,1,censored at last simulated contact
S0031-P2,ARM2,PFS,Progression-free survival (detected at assessment),10,1,censored at last tumour assessment
S0031-P2,ARM2,OS,Overall survival (death in the simulated horizon),10,1,censored at last simulated contact
S0032-P1,ARM1,PFS,Progression-free survival (detected at assessment),1,1,censored at last tumour assessment
S0032-P1,ARM1,OS,Overall survival (death in the simulated horizon),1,1,censored at last simulated contact
S0032-P2,ARM2,PFS,Progression-free survival (detected at assessment),10,1,censored at last tumour assessment
S0032-P2,ARM2,OS,Overall survival (death in the simulated horizon),10,1,censored at last simulated contact
S0033-P1,ARM1,PFS,Progression-free survival (detected at assessment),1,1,censored at last tumour assessment
S0033-P1,ARM1,OS,Overall survival (death in the simulated horizon),1,1,censored at last simulated contact
S0033-P2,ARM2,PFS,Progression-free survival (detected at assessment),10,1,censored at last tumour assessment
S0033-P2,ARM2,OS,Overall survival (death in the simulated horizon),10,1,censored at last simulated contact
S0034-P1,ARM1,PFS,Progression-free survival (detected at assessment),1,1,censored at last tumour assessment
S0034-P1,ARM1,OS,Overall survival (death in the simulated horizon),1,1,censored at last simulated contact
S0034-P2,ARM2,PFS,Progression-free survival (detected at assessment),10,1,censored at last tumour assessment
S0034-P2,ARM2,OS,Overall survival (death in the simulated horizon),10,1,censored at last simulated contact
S0035-P1,ARM1,PFS,Progression-free survival (detected at assessment),1,1,censored at last tumour assessment
S0035-P1,ARM1,OS,Overall survival (death in the simulated horizon),1,1,censored at last simulated contact
S0035-P2,ARM2,PFS,Progression-free survival (detected at assessment),10,1,censored at last tumour assessment
S0035-P2,ARM2,OS,Overall survival (death in the simulated horizon),10,1,censored at last simulated contact
S0036-P1,ARM1,PFS,Progression-free survival (detected at assessment),1,1,censored at last tumour assessment
S0036-P1,ARM1,OS,Overall survival (death in the simulated horizon),1,1,censored at last simulated contact
S0036-P2,ARM2,PFS,Progression-free survival (detected at assessment),10,1,censored at last tumour assessment
S0036-P2,ARM2,OS,Overall survival (death in the simulated horizon),10,1,censored at last simulated contact
S0037-P1,ARM1,PFS,Progression-free survival (detected at assessment),1,1,censored at last tumour assessment
S0037-P1,ARM1,OS,Overall survival (death in the simulated horizon),1,1,censored at last simulated contact
S0037-P2,ARM2,PFS,Progression-free survival (detected at assessment),10,1,censored at last tumour assessment
S0037-P2,ARM2,OS,Overall survival (death in the simulated horizon),10,1,censored at last simulated contact
S0038-P1,ARM1,PFS,Progression-free survival (detected at assessment),1,1,censored at last tumour assessment
S0038-P1,ARM1,OS,Overall survival (death in the simulated horizon),1,1,censored at last simulated contact
S0038-P2,ARM2,PFS,Progression-free survival (detected at assessment),10,1,censored at last tumour assessment
S0038-P2,ARM2,OS,Overall survival (death in the simulated horizon),10,1,censored at last simulated contact
S0039-P1,ARM1,PFS,Progression-free survival (detected at assessment),1,1,censored at last tumour assessment
S0039-P1,ARM1,OS,Overall survival (death in the simulated horizon),1,1,censored at last simulated contact
S0039-P2,ARM2,PFS,Progression-free survival (detected at assessment),10,1,censored at last tumour assessment
S0039-P2,ARM2,OS,Overall survival (death in the simulated horizon),10,1,censored at last simulated contact
S0040-P1,ARM1,PFS,Progression-free survival (detected at assessment),1,1,censored at last tumour assessment
S0040-P1,ARM1,OS,Overall survival (death in the simulated horizon),1,1,censored at last simulated contact
S0040-P2,ARM2,PFS,Progression-free survival (detected at assessment),10,1,censored at last tumour assessment
S0040-P2,ARM2,OS,Overall survival (death in the simulated horizon),10,1,censored at last simulated contact
S0041-P1,ARM1,PFS,Progression-free survival (detected at assessment),1,1,censored at last tumour assessment
S0041-P1,ARM1,OS,Overall survival (death in the simulated horizon),1,1,censored at last simulated contact
S0041-P2,ARM2,PFS,Progression-free survival (detected at assessment),10,1,censored at last tumour assessment
S0041-P2,ARM2,OS,Overall survival (death in the simulated horizon),10,1,censored at last simulated contact
S0042-P1,ARM1,PFS,Progression-free survival (detected at assessment),1,1,censored at last tumour assessment
S0042-P1,ARM1,OS,Overall survival (death in the simulated horizon),1,1,censored at last simulated contact
S0042-P2,ARM2,PFS,Progression-free survival (detected at assessment),10,1,censored at last tumour assessment
S0042-P2,ARM2,OS,Overall survival (death in the simulated horizon),10,1,censored at last simulated contact
S0043-P1,ARM1,PFS,Progression-free survival (detected at assessment),1,1,censored at last tumour assessment
S0043-P1,ARM1,OS,Overall survival (death in the simulated horizon),1,1,censored at last simulated contact
S0043-P2,ARM2,PFS,Progression-free survival (detected at assessment),10,1,censored at last tumour assessment
S0043-P2,ARM2,OS,Overall survival (death in the simulated horizon),10,1,censored at last simulated contact
S0044-P1,ARM1,PFS,Progression-free survival (detected at assessment),1,1,censored at last tumour assessment
S0044-P1,ARM1,OS,Overall survival (death in the simulated horizon),1,1,censored at last simulated contact
S0044-P2,ARM2,PFS,Progression-free survival (detected at assessment),6,1,censored at last tumour assessment
S0044-P2,ARM2,OS,Overall survival (death in the simulated horizon),6,1,censored at last simulated contact
S0045-P1,ARM1,PFS,Progression-free survival (detected at assessment),1,1,censored at last tumour assessment
S0045-P1,ARM1,OS,Overall survival (death in the simulated horizon),1,1,censored at last simulated contact
S0045-P2,ARM2,PFS,Progression-free survival (detected at assessment),10,1,censored at last tumour assessment
S0045-P2,ARM2,OS,Overall survival (death in the simulated horizon),10,1,censored at last simulated contact
S0046-P1,ARM1,PFS,Progression-free survival (detected at assessment),1,1,censored at last tumour assessment
S0046-P1,ARM1,OS,Overall survival (death in the simulated horizon),1,1,censored at last simulated contact
S0046-P2,ARM2,PFS,Progression-free survival (detected at assessment),10,1,censored at last tumour assessment
S0046-P2,ARM2,OS,Overall survival (death in the simulated horizon),10,1,censored at last simulated contact
S0047-P1,ARM1,PFS,Progression-free survival (detected at assessment),1,1,censored at last tumour assessment
S0047-P1,ARM1,OS,Overall survival (death in the simulated horizon),1,1,censored at last simulated contact
S0047-P2,ARM2,PFS,Progression-free survival (detected at assessment),10,1,censored at last tumour assessment
S0047-P2,ARM2,OS,Overall survival (death in the simulated horizon),10,1,censored at last simulated contact
S0048-P1,ARM1,PFS,Progression-free survival (detected at assessment),1,1,censored at last tumour assessment
S0048-P1,ARM1,OS,Overall survival (death in the simulated horizon),1,1,censored at last simulated contact
S0048-P2,ARM2,PFS,Progression-free survival (detected at assessment),10,1,censored at last tumour assessment
S0048-P2,ARM2,OS,Overall survival (death in the simulated horizon),10,1,censored at last simulated contact
S0049-P1,ARM1,PFS,Progression-free survival (detected at assessment),1,1,censored at last tumour assessment
S0049-P1,ARM1,OS,Overall survival (death in the simulated horizon),1,1,censored at last simulated contact
S0049-P2,ARM2,PFS,Progression-free survival (detected at assessment),10,1,censored at last tumour assessment
S0049-P2,ARM2,OS,Overall survival (death in the simulated horizon),10,1,censored at last simulated contact
S0050-P1,ARM1,PFS,Progression-free survival (detected at assessment),1,1,censored at last tumour assessment
S0050-P1,ARM1,OS,Overall survival (death in the simulated horizon),1,1,censored at last simulated contact
S0050-P2,ARM2,PFS,Progression-free survival (detected at assessment),10,1,censored at last tumour assessment
S0050-P2,ARM2,OS,Overall survival (death in the simulated horizon),10,1,censored at last simulated contact
S0051-P1,ARM1,PFS,Progression-free survival (detected at assessment),1,1,censored at last tumour assessment
S0051-P1,ARM1,OS,Overall survival (death in the simulated horizon),1,1,censored at last simulated contact
S0051-P2,ARM2,PFS,Progression-free survival (detected at assessment),10,1,censored at last tumour assessment
S0051-P2,ARM2,OS,Overall survival (death in the simulated horizon),10,1,censored at last simulated contact
S0052-P1,ARM1,PFS,Progression-free survival (detected at assessment),1,1,censored at last tumour assessment
S0052-P1,ARM1,OS,Overall survival (death in the simulated horizon),1,1,censored at last simulated contact
S0052-P2,ARM2,PFS,Progression-free survival (detected at assessment),10,1,censored at last tumour assessment
S0052-P2,ARM2,OS,Overall survival (death in the simulated horizon),10,1,censored at last simulated contact
