USUBJID,TRLNKID,TRTESTCD,TRORRES,TRORRESU,TRDY,VISIT
S0001,T01,LDIAM,53.0,mm,0,BASELINE
S0001,T02,LDIAM,16.4,mm,0,BASELINE
S0001,T03,LDIAM,12.5,mm,0,BASELINE
S0001,,SUMDIAM,81.9,mm,0,BASELINE
S0001,T01,LDIAM,66.2,mm,56,TA1
S0001,T02,LDIAM,20.5,mm,56,TA1
S0001,T03,LDIAM,15.6,mm,56,TA1
S0001,,SUMDIAM,102.4,mm,56,TA1
S0002,T01,LDIAM,12.5,mm,0,BASELINE
S0002,T02,LDIAM,52.6,mm,0,BASELINE
S0002,,SUMDIAM,65.1,mm,0,BASELINE
S0003,T01,LDIAM,24.2,mm,0,BASELINE
S0003,,SUMDIAM,24.2,mm,0,BASELINE
S0003,T01,LDIAM,12.1,mm,56,TA1
S0003,,SUMDIAM,12.1,mm,56,TA1
S0003,T01,LDIAM,0.0,mm,112,TA2
S0003,,SUMDIAM,0.0,mm,112,TA2
S0004,T01,LDIAM,47.0,mm,0,BASELINE
S0004,T02,LDIAM,43.3,mm,0,BASELINE
S0004,T03,LDIAM,36.3,mm,0,BASELINE
S0004,,SUMDIAM,126.6,mm,0,BASELINE
S0004,T01,LDIAM,41.1,mm,56,TA1
S0004,T02,LDIAM,37.9,mm,56,TA1
S0004,T03,LDIAM,31.8,mm,56,TA1
S0004,,SUMDIAM,110.8,mm,56,TA1
S0004,T01,LDIAM,51.7,mm,112,TA2
S0004,T02,LDIAM,47.6,mm,112,TA2
S0004,T03,LDIAM,39.9,mm,112,TA2
S0004,,SUMDIAM,139.3,mm,112,TA2
S0005,T01,LDIAM,39.9,mm,0,BASELINE
S0005,,SUMDIAM,39.9,mm,0,BASELINE
S0005,T01,LDIAM,19.9,mm,56,TA1
S0005,,SUMDIAM,19.9,mm,56,TA1
S0006,T01,LDIAM,15.9,mm,0,BASELINE
S0006,T02,LDIAM,27.3,mm,0,BASELINE
S0006,T03,LDIAM,16.1,mm,0,BASELINE
S0006,,SUMDIAM,59.3,mm,0,BASELINE
S0006,T01,LDIAM,16.3,mm,56,TA1
S0006,T02,LDIAM,27.9,mm,56,TA1
S0006,T03,LDIAM,16.5,mm,56,TA1
S0006,,SUMDIAM,60.7,mm,56,TA1
S0006,T01,LDIAM,16.6,mm,112,TA2
S0006,T02,LDIAM,28.6,mm,112,TA2
S0006,T03,LDIAM,16.8,mm,112,TA2
S0006,,SUMDIAM,62.0,mm,112,TA2
S0006,T01,LDIAM,16.6,mm,168,TA3
S0006,T02,LDIAM,28.6,mm,168,TA3
S0006,T03,LDIAM,16.8,mm,168,TA3
S0006,,SUMDIAM,62.0,mm,168,TA3
S0006,T01,LDIAM,16.6,mm,224,TA4
S0006,T02,LDIAM,28.6,mm,224,TA4
S0006,T03,LDIAM,16.8,mm,224,TA4
S0006,,SUMDIAM,62.0,mm,224,TA4
S0006,T01,LDIAM,16.6,mm,280,TA5
S0006,T02,LDIAM,28.6,mm,280,TA5
S0006,T03,LDIAM,16.8,mm,280,TA5
S0006,,SUMDIAM,62.0,mm,280,TA5
S0006,T01,LDIAM,19.9,mm,336,TA6
S0006,T02,LDIAM,34.1,mm,336,TA6
S0006,T03,LDIAM,20.1,mm,336,TA6
S0006,,SUMDIAM,74.1,mm,336,TA6
S0007,T01,LDIAM,50.1,mm,0,BASELINE
S0007,T02,LDIAM,11.8,mm,0,BASELINE
S0007,,SUMDIAM,61.9,mm,0,BASELINE
S0007,T01,LDIAM,62.6,mm,56,TA1
S0007,T02,LDIAM,14.8,mm,56,TA1
S0007,,SUMDIAM,77.4,mm,56,TA1
S0008,T01,LDIAM,14.8,mm,0,BASELINE
S0008,,SUMDIAM,14.8,mm,0,BASELINE
S0008,T01,LDIAM,7.4,mm,56,TA1
S0008,,SUMDIAM,7.4,mm,56,TA1
S0008,T01,LDIAM,13.4,mm,112,TA2
S0008,,SUMDIAM,13.4,mm,112,TA2
S0009,T01,LDIAM,48.5,mm,0,BASELINE
S0009,T02,LDIAM,28.6,mm,0,BASELINE
S0009,T03,LDIAM,44.7,mm,0,BASELINE
S0009,T04,LDIAM,24.5,mm,0,BASELINE
S0009,T05,LDIAM,17.8,mm,0,BASELINE
S0009,,SUMDIAM,164.1,mm,0,BASELINE
S0009,T01,LDIAM,60.6,mm,56,TA1
S0009,T02,LDIAM,35.8,mm,56,TA1
S0009,T03,LDIAM,55.9,mm,56,TA1
S0009,T04,LDIAM,30.6,mm,56,TA1
S0009,T05,LDIAM,22.2,mm,56,TA1
S0009,,SUMDIAM,205.1,mm,56,TA1
S0010,T01,LDIAM,34.6,mm,0,BASELINE
S0010,T02,LDIAM,54.3,mm,0,BASELINE
S0010,T03,LDIAM,55.0,mm,0,BASELINE
S0010,T04,LDIAM,12.8,mm,0,BASELINE
S0010,,SUMDIAM,156.7,mm,0,BASELINE
S0010,T01,LDIAM,31.0,mm,56,TA1
S0010,T02,LDIAM,48.7,mm,56,TA1
S0010,T03,LDIAM,49.3,mm,56,TA1
S0010,T04,LDIAM,11.5,mm,56,TA1
S0010,,SUMDIAM,140.6,mm,56,TA1
S0010,T01,LDIAM,27.5,mm,112,TA2
S0010,T02,LDIAM,43.1,mm,112,TA2
S0010,T03,LDIAM,43.7,mm,112,TA2
S0010,T04,LDIAM,10.2,mm,112,TA2
S0010,,SUMDIAM,124.4,mm,112,TA2
S0010,T01,LDIAM,27.5,mm,168,TA3
S0010,T02,LDIAM,43.1,mm,168,TA3
S0010,T03,LDIAM,43.7,mm,168,TA3
S0010,T04,LDIAM,10.2,mm,168,TA3
S0010,,SUMDIAM,124.4,mm,168,TA3
S0010,T01,LDIAM,27.5,mm,224,TA4
S0010,T02,LDIAM,43.1,mm,224,TA4
S0010,T03,LDIAM,43.7,mm,224,TA4
S0010,T04,LDIAM,10.2,mm,224,TA4
S0010,,SUMDIAM,124.4,mm,224,TA4
S0011,T01,LDIAM,57.1,mm,0,BASELINE
S0011,T02,LDIAM,34.6,mm,0,BASELINE
S0011,T03,LDIAM,13.5,mm,0,BASELINE
S0011,,SUMDIAM,105.2,mm,0,BASELINE
S0011,T01,LDIAM,51.5,mm,56,TA1
S0011,T02,LDIAM,31.2,mm,56,TA1
S0011,T03,LDIAM,12.2,mm,56,TA1
S0011,,SUMDIAM,94.9,mm,56,TA1
S0011,T01,LDIAM,45.9,mm,112,TA2
S0011,T02,LDIAM,27.8,mm,112,TA2
S0011,T03,LDIAM,10.9,mm,112,TA2
S0011,,SUMDIAM,84.6,mm,112,TA2
S0011,T01,LDIAM,45.9,mm,168,TA3
S0011,T02,LDIAM,27.8,mm,168,TA3
S0011,T03,LDIAM,10.9,mm,168,TA3
S0011,,SUMDIAM,84.6,mm,168,TA3
S0011,T01,LDIAM,58.0,mm,224,TA4
S0011,T02,LDIAM,35.1,mm,224,TA4
S0011,T03,LDIAM,13.7,mm,224,TA4
S0011,,SUMDIAM,106.8,mm,224,TA4
S0012,T01,LDIAM,25.6,mm,0,BASELINE
S0012,T02,LDIAM,51.8,mm,0,BASELINE
S0012,T03,LDIAM,38.1,mm,0,BASELINE
S0012,T04,LDIAM,54.4,mm,0,BASELINE
S0012,,SUMDIAM,169.9,mm,0,BASELINE
S0012,T01,LDIAM,27.5,mm,56,TA1
S0012,T02,LDIAM,55.7,mm,56,TA1
S0012,T03,LDIAM,41.0,mm,56,TA1
S0012,T04,LDIAM,58.5,mm,56,TA1
S0012,,SUMDIAM,182.7,mm,56,TA1
S0012,T01,LDIAM,32.0,mm,112,TA2
S0012,T02,LDIAM,64.8,mm,112,TA2
S0012,T03,LDIAM,47.6,mm,112,TA2
S0012,T04,LDIAM,68.0,mm,112,TA2
S0012,,SUMDIAM,212.4,mm,112,TA2
S0013,T01,LDIAM,17.8,mm,0,BASELINE
S0013,,SUMDIAM,17.8,mm,0,BASELINE
S0013,T01,LDIAM,23.8,mm,56,TA1
S0013,,SUMDIAM,23.8,mm,56,TA1
S0014,T01,LDIAM,38.8,mm,0,BASELINE
S0014,T02,LDIAM,17.5,mm,0,BASELINE
S0014,,SUMDIAM,56.3,mm,0,BASELINE
S0014,T01,LDIAM,36.5,mm,56,TA1
S0014,T02,LDIAM,16.5,mm,56,TA1
S0014,,SUMDIAM,53.0,mm,56,TA1
S0015,T01,LDIAM,56.7,mm,0,BASELINE
S0015,T02,LDIAM,26.1,mm,0,BASELINE
S0015,T03,LDIAM,45.3,mm,0,BASELINE
S0015,T04,LDIAM,15.1,mm,0,BASELINE
S0015,T05,LDIAM,43.1,mm,0,BASELINE
S0015,,SUMDIAM,186.3,mm,0,BASELINE
S0015,T01,LDIAM,59.1,mm,56,TA1
S0015,T02,LDIAM,27.2,mm,56,TA1
S0015,T03,LDIAM,47.2,mm,56,TA1
S0015,T04,LDIAM,15.7,mm,56,TA1
S0015,T05,LDIAM,44.9,mm,56,TA1
S0015,,SUMDIAM,194.2,mm,56,TA1
S0015,T01,LDIAM,70.9,mm,112,TA2
S0015,T02,LDIAM,32.6,mm,112,TA2
S0015,T03,LDIAM,56.6,mm,112,TA2
S0015,T04,LDIAM,18.9,mm,112,TA2
S0015,T05,LDIAM,53.9,mm,112,TA2
S0015,,SUMDIAM,232.9,mm,112,TA2
S0016,T01,LDIAM,46.8,mm,0,BASELINE
S0016,T02,LDIAM,26.8,mm,0,BASELINE
S0016,T03,LDIAM,38.4,mm,0,BASELINE
S0016,T04,LDIAM,37.3,mm,0,BASELINE
S0016,T05,LDIAM,28.0,mm,0,BASELINE
S0016,,SUMDIAM,177.3,mm,0,BASELINE
S0016,T01,LDIAM,41.2,mm,56,TA1
S0016,T02,LDIAM,23.6,mm,56,TA1
S0016,T03,LDIAM,33.8,mm,56,TA1
S0016,T04,LDIAM,32.9,mm,56,TA1
S0016,T05,LDIAM,24.7,mm,56,TA1
S0016,,SUMDIAM,156.2,mm,56,TA1
S0016,T01,LDIAM,35.7,mm,112,TA2
S0016,T02,LDIAM,20.4,mm,112,TA2
S0016,T03,LDIAM,29.3,mm,112,TA2
S0016,T04,LDIAM,28.4,mm,112,TA2
S0016,T05,LDIAM,21.3,mm,112,TA2
S0016,,SUMDIAM,135.1,mm,112,TA2
S0017,T01,LDIAM,50.8,mm,0,BASELINE
S0017,,SUMDIAM,50.8,mm,0,BASELINE
S0017,T01,LDIAM,54.3,mm,56,TA1
S0017,,SUMDIAM,54.3,mm,56,TA1
S0017,T01,LDIAM,57.8,mm,112,TA2
S0017,,SUMDIAM,57.8,mm,112,TA2
S0017,T01,LDIAM,57.8,mm,168,TA3
S0017,,SUMDIAM,57.8,mm,168,TA3
S0017,T01,LDIAM,57.8,mm,224,TA4
S0017,,SUMDIAM,57.8,mm,224,TA4
S0017,T01,LDIAM,57.8,mm,280,TA5
S0017,,SUMDIAM,57.8,mm,280,TA5
S0017,T01,LDIAM,57.8,mm,336,TA6
S0017,,SUMDIAM,57.8,mm,336,TA6
S0017,T01,LDIAM,57.8,mm,392,TA7
S0017,,SUMDIAM,57.8,mm,392,TA7
S0017,T01,LDIAM,57.8,mm,448,TA8
S0017,,SUMDIAM,57.8,mm,448,TA8
S0017,T01,LDIAM,57.8,mm,504,TA9
S0017,,SUMDIAM,57.8,mm,504,TA9
S0017,T01,LDIAM,57.8,mm,560,TA10
S0017,,SUMDIAM,57.8,mm,560,TA10
