USUBJID,AESEQ,AETERM,AESER,AETOXGR,AESTDY,AEENDY,AEACN,AERULE,ARMCD,TRTEMFL
S0001,1,sleeplessness,N,2,15,22,NOT APPLICABLE,,ARM1,Y
S0001,2,fever,N,1,26,43,NOT APPLICABLE,,ARM1,Y
S0001,3,dehydration,Y,3,31,64,NOT APPLICABLE,,ARM1,Y
S0001,4,decreased_platelet_count,N,2,32,43,NOT APPLICABLE,,ARM1,Y
S0001,5,hyperglycemia,N,2,33,43,NOT APPLICABLE,,ARM1,Y
S0001,6,vomiting,N,2,59,64,NOT APPLICABLE,,ARM1,Y
S0001,7,rash/desquamation,N,1,66,73,NOT APPLICABLE,,ARM1,Y
S0001,8,neutrophil_count_decreased,N,1,69,76,NOT APPLICABLE,,ARM1,Y
S0001,9,alanine_aminotransferase_increased,N,1,74,81,NOT APPLICABLE,,ARM1,Y
S0001,10,creatinine,N,2,75,82,NOT APPLICABLE,,ARM1,Y
S0001,11,myalgia,N,1,80,87,NOT APPLICABLE,,ARM1,Y
S0001,12,edema,N,1,89,96,NOT APPLICABLE,,ARM1,Y
S0001,13,pain_other,N,2,90,97,NOT APPLICABLE,,ARM1,Y
S0001,14,rash_erythematous_macules_or_papules,N,2,102,109,NOT APPLICABLE,,ARM1,Y
S0001,15,anorexia,N,1,113,120,NOT APPLICABLE,,ARM1,Y
S0002,1,creatinine,N,2,4,22,NOT APPLICABLE,,ARM1,Y
S0002,2,decreased_platelet_count,N,2,5,22,NOT APPLICABLE,,ARM1,Y
S0002,3,back_pain,N,1,10,22,NOT APPLICABLE,,ARM1,Y
S0002,4,anorexia,N,1,22,43,NOT APPLICABLE,,ARM1,Y
S0002,5,rash_erythematous_macules_or_papules,N,1,23,43,NOT APPLICABLE,,ARM1,Y
S0002,6,vomiting,N,2,26,43,NOT APPLICABLE,,ARM1,Y
S0002,7,myalgia,N,1,30,43,NOT APPLICABLE,,ARM1,Y
S0002,8,white_blood_cell_decreased,N,2,33,43,NOT APPLICABLE,,ARM1,Y
S0002,9,hair_loss/alopecia_(scalp_or_body),N,1,34,43,NOT APPLICABLE,,ARM1,Y
S0002,10,hypomagnesemia,N,1,49,64,NOT APPLICABLE,,ARM1,Y
S0002,11,dizziness,N,1,51,64,NOT APPLICABLE,,ARM1,Y
S0002,12,edema,N,1,54,64,NOT APPLICABLE,,ARM1,Y
S0002,13,hyperglycemia,N,1,55,64,NOT APPLICABLE,,ARM1,Y
S0002,14,constipation,N,2,63,64,NOT APPLICABLE,,ARM1,Y
S0002,15,dehydration,Y,3,66,80,NOT APPLICABLE,,ARM1,Y
S0002,16,alanine_aminotransferase_increased,N,1,67,74,NOT APPLICABLE,,ARM1,Y
S0002,17,rash/desquamation,N,2,74,81,NOT APPLICABLE,,ARM1,Y
S0002,18,hyponatremia,N,2,102,109,NOT APPLICABLE,,ARM1,Y
S0002,19,alopecia,N,1,103,110,NOT APPLICABLE,,ARM1,Y
S0002,20,fever,N,1,106,113,NOT APPLICABLE,,ARM1,Y
S0002,21,leukopenia,N,2,112,119,NOT APPLICABLE,,ARM1,Y
S0003,1,myalgia,N,1,7,22,NOT APPLICABLE,,ARM1,Y
S0003,2,rash_erythematous_macules_or_papules,N,2,7,22,NOT APPLICABLE,,ARM1,Y
S0003,3,sensory_neuropathy,N,2,21,22,NOT APPLICABLE,,ARM1,Y
S0003,4,leukopenia,N,1,26,43,NOT APPLICABLE,,ARM1,Y
S0003,5,alanine_aminotransferase_increased,N,1,26,43,NOT APPLICABLE,,ARM1,Y
S0003,6,vomiting,N,2,28,43,NOT APPLICABLE,,ARM1,Y
S0003,7,anorexia,N,1,33,43,NOT APPLICABLE,,ARM1,Y
S0003,8,neutrophil_count_decreased,N,1,35,43,NOT APPLICABLE,,ARM1,Y
S0003,9,creatinine,N,2,37,43,NOT APPLICABLE,,ARM1,Y
S0003,10,hyperglycemia,N,2,57,64,NOT APPLICABLE,,ARM1,Y
S0003,11,decreased_platelet_count,N,1,57,64,NOT APPLICABLE,,ARM1,Y
S0003,12,anemia,N,1,63,64,NOT APPLICABLE,,ARM1,Y
S0003,13,hypomagnesemia,N,1,65,72,NOT APPLICABLE,,ARM1,Y
S0003,14,rash/desquamation,N,1,75,82,NOT APPLICABLE,,ARM1,Y
S0003,15,hair_loss/alopecia_(scalp_or_body),N,2,76,83,NOT APPLICABLE,,ARM1,Y
S0003,16,pain_other,N,1,76,83,NOT APPLICABLE,,ARM1,Y
S0003,17,coughing,N,1,78,85,NOT APPLICABLE,,ARM1,Y
S0003,18,white_blood_cell_decreased,N,1,79,86,NOT APPLICABLE,,ARM1,Y
S0003,19,abdominal_pain,N,1,89,96,NOT APPLICABLE,,ARM1,Y
S0004,1,myalgia,N,1,3,22,NOT APPLICABLE,,ARM1,Y
S0004,2,fever,N,2,10,22,NOT APPLICABLE,,ARM1,Y
S0004,3,alopecia,N,2,24,43,NOT APPLICABLE,,ARM1,Y
S0004,4,pain_other,N,1,27,43,NOT APPLICABLE,,ARM1,Y
S0004,5,hypomagnesemia,N,1,31,43,NOT APPLICABLE,,ARM1,Y
S0004,6,hyperglycemia,N,2,36,43,NOT APPLICABLE,,ARM1,Y
S0004,7,anorexia,N,1,49,64,NOT APPLICABLE,,ARM1,Y
S0004,8,creatinine,N,1,52,64,NOT APPLICABLE,,ARM1,Y
S0004,9,rash_erythematous_macules_or_papules,N,2,54,64,NOT APPLICABLE,,ARM1,Y
S0004,10,decreased_platelet_count,N,1,66,73,NOT APPLICABLE,,ARM1,Y
S0004,11,vomiting,N,1,68,75,NOT APPLICABLE,,ARM1,Y
S0004,12,coughing,N,2,73,80,NOT APPLICABLE,,ARM1,Y
S0004,13,alanine_aminotransferase_increased,N,2,80,87,NOT APPLICABLE,,ARM1,Y
S0004,14,nausea,N,1,99,106,NOT APPLICABLE,,ARM1,Y
S0005,1,hypomagnesemia,N,2,17,22,NOT APPLICABLE,,ARM1,Y
S0005,2,alopecia,N,1,71,78,NOT APPLICABLE,,ARM1,Y
S0005,3,vomiting,N,2,72,79,NOT APPLICABLE,,ARM1,Y
S0005,4,rash/desquamation,N,2,72,79,NOT APPLICABLE,,ARM1,Y
S0005,5,rash_erythematous_macules_or_papules,N,1,73,80,NOT APPLICABLE,,ARM1,Y
S0005,6,myalgia,N,1,77,84,NOT APPLICABLE,,ARM1,Y
S0005,7,hyponatremia,N,1,98,105,NOT APPLICABLE,,ARM1,Y
S0005,8,creatinine,N,2,98,105,NOT APPLICABLE,,ARM1,Y
S0005,9,hyperglycemia,N,2,105,112,NOT APPLICABLE,,ARM1,Y
S0005,10,alanine_aminotransferase_increased,N,1,110,117,NOT APPLICABLE,,ARM1,Y
S0006,1,hyperglycemia,N,1,6,22,NOT APPLICABLE,,ARM1,Y
S0006,2,myalgia,N,2,6,22,NOT APPLICABLE,,ARM1,Y
S0006,3,back_pain,N,2,7,22,NOT APPLICABLE,,ARM1,Y
S0006,4,alopecia,N,1,9,22,NOT APPLICABLE,,ARM1,Y
S0006,5,creatinine,N,1,10,22,NOT APPLICABLE,,ARM1,Y
S0006,6,alanine_aminotransferase_increased,N,2,13,22,NOT APPLICABLE,,ARM1,Y
S0006,7,peripheral_edema,N,2,22,43,NOT APPLICABLE,,ARM1,Y
S0006,8,rash_erythematous_macules_or_papules,N,1,26,43,NOT APPLICABLE,,ARM1,Y
S0006,9,dyspnea,N,1,27,43,NOT APPLICABLE,,ARM1,Y
S0006,10,rash/desquamation,N,2,48,64,NOT APPLICABLE,,ARM1,Y
S0007,1,vomiting,N,1,31,43,NOT APPLICABLE,,ARM1,Y
S0007,2,dyspnea,N,2,45,64,NOT APPLICABLE,,ARM1,Y
S0007,3,rash_erythematous_macules_or_papules,N,2,45,64,NOT APPLICABLE,,ARM1,Y
S0007,4,rash/desquamation,N,2,49,64,NOT APPLICABLE,,ARM1,Y
S0007,5,hypomagnesemia,N,1,56,64,NOT APPLICABLE,,ARM1,Y
S0007,6,hyperglycemia,N,2,69,76,NOT APPLICABLE,,ARM1,Y
S0007,7,creatinine,N,2,73,80,NOT APPLICABLE,,ARM1,Y
S0007,8,myalgia,N,2,109,116,NOT APPLICABLE,,ARM1,Y
S0007,9,hyponatremia,N,1,114,121,NOT APPLICABLE,,ARM1,Y
S0008,1,rash_erythematous_macules_or_papules,N,2,7,22,NOT APPLICABLE,,ARM1,Y
S0008,2,weight_loss,N,1,19,22,NOT APPLICABLE,,ARM1,Y
S0008,3,myalgia,N,1,38,43,NOT APPLICABLE,,ARM1,Y
S0008,4,hair_loss/alopecia_(scalp_or_body),N,2,43,64,NOT APPLICABLE,,ARM1,Y
S0008,5,anorexia,N,1,45,64,NOT APPLICABLE,,ARM1,Y
S0008,6,hyperglycemia,N,2,45,64,NOT APPLICABLE,,ARM1,Y
S0008,7,constipation,N,1,46,64,NOT APPLICABLE,,ARM1,Y
S0008,8,pain_other,N,2,53,64,NOT APPLICABLE,,ARM1,Y
S0008,9,alanine_aminotransferase_increased,N,2,63,64,NOT APPLICABLE,,ARM1,Y
S0008,10,creatinine,N,1,83,90,NOT APPLICABLE,,ARM1,Y
S0008,11,alopecia,N,1,84,91,NOT APPLICABLE,,ARM1,Y
S0008,12,nausea,N,2,101,108,NOT APPLICABLE,,ARM1,Y
S0009,1,hyperglycemia,N,2,3,22,NOT APPLICABLE,,ARM1,Y
S0009,2,rash/desquamation,N,2,16,22,NOT APPLICABLE,,ARM1,Y
S0009,3,anorexia,N,2,17,22,NOT APPLICABLE,,ARM1,Y
S0009,4,creatinine,N,2,21,22,NOT APPLICABLE,,ARM1,Y
S0009,5,edema,N,1,26,43,NOT APPLICABLE,,ARM1,Y
S0009,6,dehydration,Y,3,26,64,NOT APPLICABLE,,ARM1,Y
S0010,1,hyperglycemia,N,2,1,22,NOT APPLICABLE,,ARM1,Y
S0010,2,diarrhea,N,2,9,22,NOT APPLICABLE,,ARM1,Y
S0010,3,creatinine,N,1,35,43,NOT APPLICABLE,,ARM1,Y
S0010,4,rash_erythematous_macules_or_papules,N,2,36,43,NOT APPLICABLE,,ARM1,Y
S0010,5,vomiting,N,1,39,43,NOT APPLICABLE,,ARM1,Y
S0010,6,peripheral_edema,N,1,40,43,NOT APPLICABLE,,ARM1,Y
S0010,7,myalgia,N,1,47,64,NOT APPLICABLE,,ARM1,Y
S0010,8,anemia,Y,3,47,61,NOT APPLICABLE,,ARM1,Y
S0010,9,dehydration,Y,3,48,62,NOT APPLICABLE,,ARM1,Y
S0010,10,rash/desquamation,N,2,50,64,NOT APPLICABLE,,ARM1,Y
S0010,11,alanine_aminotransferase_increased,N,2,62,64,NOT APPLICABLE,,ARM1,Y
S0010,12,fever,N,2,70,77,NOT APPLICABLE,,ARM1,Y
S0010,13,platelets,N,1,81,88,NOT APPLICABLE,,ARM1,Y
S0010,14,hyponatremia,N,2,100,107,NOT APPLICABLE,,ARM1,Y
S0010,15,coughing,N,2,105,112,NOT APPLICABLE,,ARM1,Y
S0010,16,pain_other,N,2,105,112,NOT APPLICABLE,,ARM1,Y
S0010,17,decreased_platelet_count,N,2,111,118,NOT APPLICABLE,,ARM1,Y
S0010,18,hypomagnesemia,N,1,112,119,NOT APPLICABLE,,ARM1,Y
S0011,1,vomiting,N,2,16,22,NOT APPLICABLE,,ARM1,Y
S0011,2,anemia,Y,3,20,43,NOT APPLICABLE,,ARM1,Y
S0011,3,anorexia,N,1,22,43,NOT APPLICABLE,,ARM1,Y
S0011,4,hyperglycemia,N,2,22,43,NOT APPLICABLE,,ARM1,Y
S0011,5,back_pain,N,2,22,43,NOT APPLICABLE,,ARM1,Y
S0011,6,alopecia,N,2,26,43,NOT APPLICABLE,,ARM1,Y
S0011,7,constipation,N,1,26,43,NOT APPLICABLE,,ARM1,Y
S0011,8,pain_other,N,2,35,43,NOT APPLICABLE,,ARM1,Y
S0011,9,sensory_neuropathy,N,1,45,64,NOT APPLICABLE,,ARM1,Y
S0011,10,creatinine,N,1,49,64,NOT APPLICABLE,,ARM1,Y
S0011,11,decreased_platelet_count,N,2,51,64,NOT APPLICABLE,,ARM1,Y
S0011,12,myalgia,N,1,61,64,NOT APPLICABLE,,ARM1,Y
S0011,13,white_blood_cell_decreased,N,2,66,73,NOT APPLICABLE,,ARM1,Y
S0011,14,alanine_aminotransferase_increased,N,2,66,73,NOT APPLICABLE,,ARM1,Y
S0012,1,white_blood_cell_decreased,N,2,11,22,NOT APPLICABLE,,ARM1,Y
S0012,2,rash/desquamation,N,1,14,22,NOT APPLICABLE,,ARM1,Y
S0012,3,peripheral_edema,N,1,30,43,NOT APPLICABLE,,ARM1,Y
S0012,4,creatinine,N,2,32,43,NOT APPLICABLE,,ARM1,Y
S0012,5,myalgia,N,2,47,64,NOT APPLICABLE,,ARM1,Y
S0012,6,hyperglycemia,N,1,49,64,NOT APPLICABLE,,ARM1,Y
S0012,7,sleeplessness,N,2,53,64,NOT APPLICABLE,,ARM1,Y
S0012,8,hyponatremia,N,1,71,78,NOT APPLICABLE,,ARM1,Y
S0012,9,alopecia,N,2,75,82,NOT APPLICABLE,,ARM1,Y
S0012,10,rash_erythematous_macules_or_papules,N,1,79,86,NOT APPLICABLE,,ARM1,Y
S0012,11,vomiting,N,1,81,88,NOT APPLICABLE,,ARM1,Y
S0012,12,pain_other,N,1,97,104,NOT APPLICABLE,,ARM1,Y
S0012,13,dehydration,Y,3,100,114,NOT APPLICABLE,,ARM1,Y
S0012,14,back_pain,N,2,106,113,NOT APPLICABLE,,ARM1,Y
S0013,1,rash/desquamation,N,1,7,22,NOT APPLICABLE,,ARM1,Y
S0013,2,rash_erythematous_macules_or_papules,N,1,9,22,NOT APPLICABLE,,ARM1,Y
S0013,3,vomiting,N,1,12,22,NOT APPLICABLE,,ARM1,Y
S0013,4,leukopenia,N,2,19,22,NOT APPLICABLE,,ARM1,Y
S0013,5,alopecia,N,2,32,43,NOT APPLICABLE,,ARM1,Y
S0013,6,myalgia,N,2,32,43,NOT APPLICABLE,,ARM1,Y
S0013,7,anemia,N,2,34,43,NOT APPLICABLE,,ARM1,Y
S0013,8,anorexia,N,2,43,64,NOT APPLICABLE,,ARM1,Y
S0013,9,creatinine,N,1,43,64,NOT APPLICABLE,,ARM1,Y
S0013,10,pain_other,N,1,51,64,NOT APPLICABLE,,ARM1,Y
S0013,11,alanine_aminotransferase_increased,N,2,63,64,NOT APPLICABLE,,ARM1,Y
S0013,12,peripheral_edema,N,1,66,73,NOT APPLICABLE,,ARM1,Y
S0013,13,diarrhea,N,2,67,74,NOT APPLICABLE,,ARM1,Y
S0014,1,anorexia,N,1,9,22,NOT APPLICABLE,,ARM1,Y
S0014,2,alopecia,N,1,14,22,NOT APPLICABLE,,ARM1,Y
S0014,3,hyperglycemia,N,1,22,43,NOT APPLICABLE,,ARM1,Y
S0014,4,creatinine,N,2,27,43,NOT APPLICABLE,,ARM1,Y
S0014,5,alanine_aminotransferase_increased,N,1,32,43,NOT APPLICABLE,,ARM1,Y
S0014,6,back_pain,N,2,35,43,NOT APPLICABLE,,ARM1,Y
S0014,7,myalgia,N,1,64,71,NOT APPLICABLE,,ARM1,Y
S0014,8,hypomagnesemia,N,2,67,74,NOT APPLICABLE,,ARM1,Y
S0014,9,white_blood_cell_decreased,N,2,80,87,NOT APPLICABLE,,ARM1,Y
S0014,10,leukopenia,N,2,89,96,NOT APPLICABLE,,ARM1,Y
S0014,11,vomiting,N,1,100,107,NOT APPLICABLE,,ARM1,Y
S0014,12,dysgeusia,N,2,104,111,NOT APPLICABLE,,ARM1,Y
S0014,13,decreased_platelet_count,N,2,104,111,NOT APPLICABLE,,ARM1,Y
S0014,14,rash_erythematous_macules_or_papules,N,2,106,113,NOT APPLICABLE,,ARM1,Y
S0014,15,rash/desquamation,N,1,112,119,NOT APPLICABLE,,ARM1,Y
S0015,1,alopecia,N,1,27,43,NOT APPLICABLE,,ARM1,Y
S0015,2,lymphopenia,N,1,31,43,NOT APPLICABLE,,ARM1,Y
S0015,3,vomiting,N,2,32,43,NOT APPLICABLE,,ARM1,Y
S0015,4,hyperglycemia,N,2,58,64,NOT APPLICABLE,,ARM1,Y
S0015,5,hyponatremia,N,1,58,64,NOT APPLICABLE,,ARM1,Y
S0015,6,rash_erythematous_macules_or_papules,N,2,58,64,NOT APPLICABLE,,ARM1,Y
S0015,7,creatinine,N,2,59,64,NOT APPLICABLE,,ARM1,Y
S0015,8,alanine_aminotransferase_increased,N,2,61,64,NOT APPLICABLE,,ARM1,Y
S0015,9,myalgia,N,1,83,90,NOT APPLICABLE,,ARM1,Y
S0015,10,dehydration,Y,3,88,102,NOT APPLICABLE,,ARM1,Y
S0015,11,weight_loss,N,2,90,97,NOT APPLICABLE,,ARM1,Y
S0015,12,peripheral_edema,N,1,94,101,NOT APPLICABLE,,ARM1,Y
S0015,13,rash/desquamation,N,1,95,102,NOT APPLICABLE,,ARM1,Y
S0015,14,pain_other,N,1,110,117,NOT APPLICABLE,,ARM1,Y
S0015,15,decreased_platelet_count,N,2,114,121,NOT APPLICABLE,,ARM1,Y
S0016,1,back_pain,N,1,1,22,NOT APPLICABLE,,ARM1,Y
S0016,2,vomiting,N,2,8,22,NOT APPLICABLE,,ARM1,Y
S0016,3,anorexia,N,1,23,43,NOT APPLICABLE,,ARM1,Y
S0016,4,hyperglycemia,N,2,32,43,NOT APPLICABLE,,ARM1,Y
S0016,5,myalgia,N,1,35,43,NOT APPLICABLE,,ARM1,Y
S0016,6,creatinine,N,2,46,64,NOT APPLICABLE,,ARM1,Y
S0016,7,white_blood_cell_decreased,N,2,46,64,NOT APPLICABLE,,ARM1,Y
S0016,8,nausea,N,2,52,64,NOT APPLICABLE,,ARM1,Y
S0016,9,anemia,Y,3,52,66,NOT APPLICABLE,,ARM1,Y
S0016,10,peripheral_edema,N,1,60,64,NOT APPLICABLE,,ARM1,Y
S0016,11,leukopenia,N,2,81,88,NOT APPLICABLE,,ARM1,Y
S0016,12,alanine_aminotransferase_increased,N,1,89,96,NOT APPLICABLE,,ARM1,Y
S0016,13,rash/desquamation,N,1,92,99,NOT APPLICABLE,,ARM1,Y
S0016,14,rash_erythematous_macules_or_papules,N,1,95,102,NOT APPLICABLE,,ARM1,Y
S0016,15,hyponatremia,N,2,106,113,NOT APPLICABLE,,ARM1,Y
S0016,16,lymphopenia,N,2,111,118,NOT APPLICABLE,,ARM1,Y
S0017,1,dyspnea,N,1,2,22,NOT APPLICABLE,,ARM1,Y
S0017,2,edema,N,2,3,22,NOT APPLICABLE,,ARM1,Y
S0017,3,creatinine,N,2,10,22,NOT APPLICABLE,,ARM1,Y
S0017,4,rash/desquamation,N,2,14,22,NOT APPLICABLE,,ARM1,Y
S0017,5,vomiting,N,2,18,22,NOT APPLICABLE,,ARM1,Y
S0017,6,decreased_platelet_count,N,1,22,43,NOT APPLICABLE,,ARM1,Y
S0017,7,myalgia,N,2,27,43,NOT APPLICABLE,,ARM1,Y
S0017,8,diarrhea,N,1,51,64,NOT APPLICABLE,,ARM1,Y
S0017,9,peripheral_edema,N,1,59,64,NOT APPLICABLE,,ARM1,Y
S0017,10,rash_erythematous_macules_or_papules,N,1,65,72,NOT APPLICABLE,,ARM1,Y
S0017,11,hyperglycemia,N,1,97,104,NOT APPLICABLE,,ARM1,Y
S0017,12,anorexia,N,2,98,105,NOT APPLICABLE,,ARM1,Y
S0017,13,alanine_aminotransferase_increased,N,1,100,107,NOT APPLICABLE,,ARM1,Y
S0018,1,myalgia,N,2,24,43,NOT APPLICABLE,,ARM1,Y
S0018,2,vomiting,N,1,34,43,NOT APPLICABLE,,ARM1,Y
S0018,3,creatinine,N,1,80,87,NOT APPLICABLE,,ARM1,Y
S0019,1,alanine_aminotransferase_increased,N,1,10,22,NOT APPLICABLE,,ARM1,Y
S0019,2,dyspnea,N,1,28,43,NOT APPLICABLE,,ARM1,Y
S0019,3,decreased_platelet_count,N,2,54,64,NOT APPLICABLE,,ARM1,Y
S0019,4,creatinine,N,1,69,76,NOT APPLICABLE,,ARM1,Y
S0019,5,alopecia,N,1,74,81,NOT APPLICABLE,,ARM1,Y
S0019,6,hypomagnesemia,N,1,86,93,NOT APPLICABLE,,ARM1,Y
S0019,7,rash/desquamation,N,2,87,94,NOT APPLICABLE,,ARM1,Y
S0019,8,hair_loss/alopecia_(scalp_or_body),N,2,91,98,NOT APPLICABLE,,ARM1,Y
S0019,9,vomiting,N,1,94,101,NOT APPLICABLE,,ARM1,Y
S0019,10,hyperglycemia,N,2,96,103,NOT APPLICABLE,,ARM1,Y
S0019,11,rash_erythematous_macules_or_papules,N,2,111,118,NOT APPLICABLE,,ARM1,Y
S0019,12,myalgia,N,1,112,119,NOT APPLICABLE,,ARM1,Y
S0020,1,dehydration,Y,3,5,43,NOT APPLICABLE,,ARM1,Y
S0020,2,white_blood_cell_decreased,N,1,7,22,NOT APPLICABLE,,ARM1,Y
S0020,3,anemia,Y,3,7,43,NOT APPLICABLE,,ARM1,Y
S0020,4,pain_other,N,1,8,22,NOT APPLICABLE,,ARM1,Y
S0020,5,rash_erythematous_macules_or_papules,N,2,9,22,NOT APPLICABLE,,ARM1,Y
S0020,6,alanine_aminotransferase_increased,N,2,13,22,NOT APPLICABLE,,ARM1,Y
S0020,7,alopecia,N,2,21,22,NOT APPLICABLE,,ARM1,Y
S0020,8,hyperglycemia,N,2,21,22,NOT APPLICABLE,,ARM1,Y
S0020,9,myalgia,N,2,21,22,NOT APPLICABLE,,ARM1,Y
S0020,10,abdominal_pain,N,2,22,43,NOT APPLICABLE,,ARM1,Y
S0020,11,nausea,N,2,26,43,NOT APPLICABLE,,ARM1,Y
S0020,12,vomiting,N,1,35,43,NOT APPLICABLE,,ARM1,Y
S0020,13,creatinine,N,1,40,43,NOT APPLICABLE,,ARM1,Y
S0020,14,neuropathy:_sensory,N,1,40,43,NOT APPLICABLE,,ARM1,Y
S0020,15,rash/desquamation,N,1,42,43,NOT APPLICABLE,,ARM1,Y
S0021,1,myalgia,N,2,5,22,NOT APPLICABLE,,ARM1,Y
S0021,2,decreased_platelet_count,N,1,12,22,NOT APPLICABLE,,ARM1,Y
S0021,3,alopecia,N,1,13,22,NOT APPLICABLE,,ARM1,Y
S0021,4,creatinine,N,1,19,22,NOT APPLICABLE,,ARM1,Y
S0021,5,fever,N,1,21,22,NOT APPLICABLE,,ARM1,Y
S0021,6,anorexia,N,2,24,43,NOT APPLICABLE,,ARM1,Y
S0021,7,vomiting,N,1,26,43,NOT APPLICABLE,,ARM1,Y
S0021,8,weight_loss,N,2,28,43,NOT APPLICABLE,,ARM1,Y
S0021,9,sleeplessness,N,1,32,43,NOT APPLICABLE,,ARM1,Y
S0021,10,hyperglycemia,N,1,36,43,NOT APPLICABLE,,ARM1,Y
S0021,11,alanine_aminotransferase_increased,N,1,36,43,NOT APPLICABLE,,ARM1,Y
S0021,12,hyponatremia,N,2,53,64,NOT APPLICABLE,,ARM1,Y
S0021,13,back_pain,N,2,69,76,NOT APPLICABLE,,ARM1,Y
S0021,14,edema,N,1,75,82,NOT APPLICABLE,,ARM1,Y
S0021,15,peripheral_edema,N,2,85,92,NOT APPLICABLE,,ARM1,Y
S0021,16,diarrhea,N,1,96,103,NOT APPLICABLE,,ARM1,Y
S0021,17,rash_erythematous_macules_or_papules,N,1,100,107,NOT APPLICABLE,,ARM1,Y
S0021,18,rash/desquamation,N,1,102,109,NOT APPLICABLE,,ARM1,Y
S0021,19,neuropathy:_sensory,N,2,108,115,NOT APPLICABLE,,ARM1,Y
S0021,20,anemia,N,2,110,117,NOT APPLICABLE,,ARM1,Y
S0022,1,alopecia,N,1,6,22,NOT APPLICABLE,,ARM1,Y
S0022,2,dyspnea,N,2,18,22,NOT APPLICABLE,,ARM1,Y
S0022,3,anemia,Y,3,23,64,NOT APPLICABLE,,ARM1,Y
S0022,4,fever,N,1,27,43,NOT APPLICABLE,,ARM1,Y
S0022,5,creatinine,N,1,39,43,NOT APPLICABLE,,ARM1,Y
S0022,6,rash/desquamation,N,2,48,64,NOT APPLICABLE,,ARM1,Y
S0022,7,vomiting,N,1,50,64,NOT APPLICABLE,,ARM1,Y
S0022,8,decreased_platelet_count,N,1,52,64,NOT APPLICABLE,,ARM1,Y
S0022,9,rash_erythematous_macules_or_papules,N,1,62,64,NOT APPLICABLE,,ARM1,Y
S0022,10,back_pain,N,2,89,96,NOT APPLICABLE,,ARM1,Y
S0022,11,constipation,N,2,98,105,NOT APPLICABLE,,ARM1,Y
S0022,12,myalgia,N,2,98,105,NOT APPLICABLE,,ARM1,Y
S0022,13,neutrophil_count_decreased,N,1,100,107,NOT APPLICABLE,,ARM1,Y
S0022,14,white_blood_cell_decreased,N,2,108,115,NOT APPLICABLE,,ARM1,Y
S0022,15,hyperglycemia,N,1,111,118,NOT APPLICABLE,,ARM1,Y
S0022,16,hair_loss/alopecia_(scalp_or_body),N,1,113,120,NOT APPLICABLE,,ARM1,Y
S0022,17,alanine_aminotransferase_increased,N,1,113,120,NOT APPLICABLE,,ARM1,Y
S0023,1,creatinine,N,2,26,43,NOT APPLICABLE,,ARM1,Y
S0023,2,vomiting,N,1,48,64,NOT APPLICABLE,,ARM1,Y
S0023,3,alanine_aminotransferase_increased,N,1,49,64,NOT APPLICABLE,,ARM1,Y
S0023,4,peripheral_edema,N,1,52,64,NOT APPLICABLE,,ARM1,Y
S0023,5,hyperglycemia,N,1,63,64,NOT APPLICABLE,,ARM1,Y
S0023,6,decreased_platelet_count,N,1,68,75,NOT APPLICABLE,,ARM1,Y
S0023,7,edema,N,2,79,86,NOT APPLICABLE,,ARM1,Y
S0023,8,rash_erythematous_macules_or_papules,N,2,83,90,NOT APPLICABLE,,ARM1,Y
S0023,9,white_blood_cell_decreased,N,2,93,100,NOT APPLICABLE,,ARM1,Y
S0024,1,alopecia,N,1,28,43,NOT APPLICABLE,,ARM1,Y
S0024,2,creatinine,N,2,38,43,NOT APPLICABLE,,ARM1,Y
S0024,3,anemia,N,2,44,64,NOT APPLICABLE,,ARM1,Y
S0024,4,nausea,N,1,59,64,NOT APPLICABLE,,ARM1,Y
S0024,5,myalgia,N,2,70,77,NOT APPLICABLE,,ARM1,Y
S0024,6,hyperglycemia,N,2,80,87,NOT APPLICABLE,,ARM1,Y
S0024,7,rash/desquamation,N,1,90,97,NOT APPLICABLE,,ARM1,Y
S0025,1,creatinine,N,1,6,22,NOT APPLICABLE,,ARM1,Y
S0025,2,rash_erythematous_macules_or_papules,N,2,51,64,NOT APPLICABLE,,ARM1,Y
S0025,3,nausea,N,2,59,64,NOT APPLICABLE,,ARM1,Y
S0025,4,vomiting,N,1,71,78,NOT APPLICABLE,,ARM1,Y
S0025,5,white_blood_cell_decreased,N,2,82,89,NOT APPLICABLE,,ARM1,Y
S0025,6,hyperglycemia,N,1,85,92,NOT APPLICABLE,,ARM1,Y
S0025,7,peripheral_edema,N,2,96,103,NOT APPLICABLE,,ARM1,Y
S0025,8,alanine_aminotransferase_increased,N,1,96,103,NOT APPLICABLE,,ARM1,Y
S0025,9,myalgia,N,1,106,113,NOT APPLICABLE,,ARM1,Y
S0026,1,vomiting,N,1,8,22,NOT APPLICABLE,,ARM1,Y
S0026,2,decreased_platelet_count,N,1,18,22,NOT APPLICABLE,,ARM1,Y
S0026,3,white_blood_cell_decreased,N,1,21,22,NOT APPLICABLE,,ARM1,Y
S0026,4,anorexia,N,1,22,43,NOT APPLICABLE,,ARM1,Y
S0026,5,creatinine,N,1,22,43,NOT APPLICABLE,,ARM1,Y
S0026,6,hyperglycemia,N,1,24,43,NOT APPLICABLE,,ARM1,Y
S0026,7,leukopenia,N,1,26,43,NOT APPLICABLE,,ARM1,Y
S0026,8,alanine_aminotransferase_increased,N,1,28,43,NOT APPLICABLE,,ARM1,Y
S0026,9,pain_other,N,1,38,43,NOT APPLICABLE,,ARM1,Y
S0026,10,rash_erythematous_macules_or_papules,N,2,38,43,NOT APPLICABLE,,ARM1,Y
S0026,11,abdominal_pain,N,2,45,64,NOT APPLICABLE,,ARM1,Y
S0026,12,weight_loss,N,1,47,64,NOT APPLICABLE,,ARM1,Y
S0026,13,hypomagnesemia,N,1,62,64,NOT APPLICABLE,,ARM1,Y
S0026,14,peripheral_edema,N,1,62,64,NOT APPLICABLE,,ARM1,Y
S0026,15,neuropathy:_sensory,N,2,64,71,NOT APPLICABLE,,ARM1,Y
S0026,16,aspartate_aminotransferase_increased,N,2,64,71,NOT APPLICABLE,,ARM1,Y
S0026,17,rash/desquamation,N,1,72,79,NOT APPLICABLE,,ARM1,Y
S0026,18,myalgia,N,1,76,83,NOT APPLICABLE,,ARM1,Y
S0026,19,fever,N,2,80,87,NOT APPLICABLE,,ARM1,Y
S0026,20,dehydration,Y,3,84,98,NOT APPLICABLE,,ARM1,Y
S0027,1,hypomagnesemia,N,1,1,22,NOT APPLICABLE,,ARM1,Y
S0027,2,creatinine,N,1,9,22,NOT APPLICABLE,,ARM1,Y
S0027,3,alanine_aminotransferase_increased,N,2,10,22,NOT APPLICABLE,,ARM1,Y
S0027,4,fever,N,1,12,22,NOT APPLICABLE,,ARM1,Y
S0027,5,coughing,N,2,12,22,NOT APPLICABLE,,ARM1,Y
S0027,6,hyperglycemia,N,1,16,22,NOT APPLICABLE,,ARM1,Y
S0027,7,rash_erythematous_macules_or_papules,N,1,21,22,NOT APPLICABLE,,ARM1,Y
S0027,8,hair_loss/alopecia_(scalp_or_body),N,1,28,43,NOT APPLICABLE,,ARM1,Y
S0027,9,myalgia,N,2,52,64,NOT APPLICABLE,,ARM1,Y
S0027,10,peripheral_edema,N,1,95,102,NOT APPLICABLE,,ARM1,Y
S0027,11,constipation,N,2,109,116,NOT APPLICABLE,,ARM1,Y
S0027,12,neutrophil_count_decreased,N,1,114,121,NOT APPLICABLE,,ARM1,Y
S0028,1,vomiting,N,1,31,43,NOT APPLICABLE,,ARM1,Y
S0028,2,white_blood_cell_decreased,N,2,53,64,NOT APPLICABLE,,ARM1,Y
S0028,3,pain_other,N,1,71,78,NOT APPLICABLE,,ARM1,Y
S0028,4,hyperglycemia,N,2,74,81,NOT APPLICABLE,,ARM1,Y
S0028,5,myalgia,N,2,87,94,NOT APPLICABLE,,ARM1,Y
S0028,6,decreased_platelet_count,N,1,90,97,NOT APPLICABLE,,ARM1,Y
S0028,7,peripheral_edema,N,1,98,105,NOT APPLICABLE,,ARM1,Y
S0028,8,creatinine,N,2,108,115,NOT APPLICABLE,,ARM1,Y
S0029,1,fever,N,2,7,22,NOT APPLICABLE,,ARM1,Y
S0029,2,hyperglycemia,N,2,25,43,NOT APPLICABLE,,ARM1,Y
S0029,3,creatinine,N,1,37,43,NOT APPLICABLE,,ARM1,Y
S0029,4,rash/desquamation,N,1,49,64,NOT APPLICABLE,,ARM1,Y
S0029,5,white_blood_cell_decreased,N,2,68,75,NOT APPLICABLE,,ARM1,Y
S0029,6,rash_erythematous_macules_or_papules,N,1,78,85,NOT APPLICABLE,,ARM1,Y
S0029,7,myalgia,N,1,92,99,NOT APPLICABLE,,ARM1,Y
S0030,1,leukopenia,N,2,8,22,NOT APPLICABLE,,ARM1,Y
S0030,2,hyperglycemia,N,2,10,22,NOT APPLICABLE,,ARM1,Y
S0030,3,myalgia,N,1,19,22,NOT APPLICABLE,,ARM1,Y
S0030,4,vomiting,N,1,25,43,NOT APPLICABLE,,ARM1,Y
S0030,5,peripheral_edema,N,2,56,64,NOT APPLICABLE,,ARM1,Y
S0030,6,white_blood_cell_decreased,N,1,73,80,NOT APPLICABLE,,ARM1,Y
S0030,7,rash_erythematous_macules_or_papules,N,2,75,82,NOT APPLICABLE,,ARM1,Y
S0030,8,anorexia,N,2,79,86,NOT APPLICABLE,,ARM1,Y
