STUDYID,USUBJID,ARMCD,AGE,SEX,RACE,ETHNIC,RFSTDTC_DAY,ENROLLMENT_DAY,TRTSDY,TRTEDY,EOTREAS,N_CYCLES,N_REDUCTIONS,N_HOLDS,RDI,ANY_SAE,ANY_GR3,DTHFL,DTHDY
NCT01616875,S0001,ARM1,70.36,male,white,hispanic_or_latino,1,3.4,1,84,completed planned treatment,4,0,0,1.0,Y,Y,N,
NCT01616875,S0002,ARM1,56.15,male,white,not_hispanic_or_latino,1,16.6,1,84,completed planned treatment,4,0,0,1.0,Y,Y,N,
NCT01616875,S0003,ARM1,58.85,female,white,not_hispanic_or_latino,1,60.9,1,59,adverse event (registry discontinuation rate),3,0,0,1.0,N,N,N,
NCT01616875,S0004,ARM1,78.92,male,asian,not_hispanic_or_latino,1,105.9,1,84,completed planned treatment,4,0,0,1.0,N,N,N,
NCT01616875,S0005,ARM1,47.85,male,asian,not_hispanic_or_latino,1,125.1,1,84,completed planned treatment,4,0,0,1.0,N,N,N,
NCT01616875,S0006,ARM1,58.89,female,white,not_hispanic_or_latino,1,348.1,1,24,disease progression,2,0,0,1.0,N,N,N,
NCT01616875,S0007,ARM1,64.03,male,white,not_hispanic_or_latino,1,425.6,1,84,completed planned treatment,4,0,0,1.0,N,N,N,
NCT01616875,S0008,ARM1,78.57,male,white,not_hispanic_or_latino,1,534.3,1,84,completed planned treatment,4,0,0,1.0,N,N,N,
NCT01616875,S0009,ARM1,71.59,male,black_or_african_american,not_hispanic_or_latino,1,559.7,1,18,disease progression,1,0,0,1.0,Y,Y,N,
NCT01616875,S0010,ARM1,71.03,male,white,not_hispanic_or_latino,1,606.2,1,84,completed planned treatment,4,0,0,1.0,Y,Y,N,
NCT01616875,S0011,ARM1,66.82,male,asian,not_hispanic_or_latino,1,645.0,1,38,disease progression,2,0,0,1.0,Y,Y,N,
NCT01616875,S0012,ARM1,55.3,male,white,hispanic_or_latino,1,661.1,1,84,completed planned treatment,4,0,0,1.0,Y,Y,N,
NCT01616875,S0013,ARM1,65.46,male,white,not_hispanic_or_latino,1,662.7,1,53,disease progression,3,0,0,1.0,N,N,N,
NCT01616875,S0014,ARM1,81.72,male,white,not_hispanic_or_latino,1,678.1,1,84,completed planned treatment,4,0,0,1.0,N,N,N,
NCT01616875,S0015,ARM1,67.14,female,white,not_hispanic_or_latino,1,747.5,1,84,completed planned treatment,4,0,0,1.0,Y,Y,N,
NCT01616875,S0016,ARM1,60.3,male,white,not_hispanic_or_latino,1,761.7,1,84,completed planned treatment,4,0,0,1.0,Y,Y,N,
NCT01616875,S0017,ARM1,55.65,male,white,not_hispanic_or_latino,1,924.1,1,73,disease progression,4,0,0,1.0,N,N,N,
NCT01616875,S0018,ARM1,56.69,male,white,not_hispanic_or_latino,1,940.2,1,84,completed planned treatment,4,0,0,1.0,N,N,N,
NCT01616875,S0019,ARM1,49.66,male,white,hispanic_or_latino,1,1042.5,1,84,completed planned treatment,4,0,0,1.0,N,N,N,
NCT01616875,S0020,ARM1,44.98,male,asian,not_hispanic_or_latino,1,1072.4,1,13,disease progression,1,0,0,1.0,Y,Y,N,
NCT01616875,S0021,ARM1,62.81,male,white,not_hispanic_or_latino,1,1141.4,1,84,completed planned treatment,4,0,0,1.0,N,N,N,
NCT01616875,S0022,ARM1,46.56,male,unknown_or_not_reported,not_hispanic_or_latino,1,1199.3,1,84,completed planned treatment,4,0,0,1.0,Y,Y,N,
NCT01616875,S0023,ARM1,61.28,female,white,not_hispanic_or_latino,1,1240.6,1,69,disease progression,4,0,0,1.0,N,N,Y,238
NCT01616875,S0024,ARM1,62.04,male,white,not_hispanic_or_latino,1,1322.8,1,84,completed planned treatment,4,0,0,1.0,N,N,N,
NCT01616875,S0025,ARM1,64.06,male,asian,not_hispanic_or_latino,1,1344.7,1,84,completed planned treatment,4,0,0,1.0,N,N,N,
NCT01616875,S0026,ARM1,74.71,male,white,not_hispanic_or_latino,1,1375.2,1,56,disease progression,3,0,0,1.0,Y,Y,Y,104
NCT01616875,S0027,ARM1,66.01,female,white,not_hispanic_or_latino,1,1436.1,1,84,completed planned treatment,4,0,0,1.0,N,N,N,
NCT01616875,S0028,ARM1,69.72,male,white,not_hispanic_or_latino,1,1512.7,1,84,completed planned treatment,4,0,0,1.0,N,N,Y,651
NCT01616875,S0029,ARM1,69.06,female,white,not_hispanic_or_latino,1,1568.9,1,84,completed planned treatment,4,0,0,1.0,N,N,N,
NCT01616875,S0030,ARM1,60.16,male,white,not_hispanic_or_latino,1,1692.5,1,84,completed planned treatment,4,0,0,1.0,N,N,N,
